wavelength	flux
1.57	1554.7247
1.82	2747.7278
2.0700002	2169.4106
2.3200002	3545.0432
2.5700002	581.3934
2.8200002	2056.7832
3.0700002	1910.5726
3.3200002	4086.1907
3.5700002	2771.4194
3.8200002	2955.5688
4.07	5409.102
4.32	4125.4326
4.57	2940.548
4.82	4495.0806
5.07	5036.209
5.32	3988.3142
5.57	6398.5874
5.82	4492.8447
6.07	5943.617
6.32	5929.788
6.5699997	3684.2246
6.8199997	3431.3315
7.0699997	5407.206
7.3199997	4860.4087
7.5699997	4592.7036
7.8199997	2932.8733
8.07	3247.5122
8.32	5331.9346
8.57	2812.0864
8.82	3576.766
9.07	3059.7769
9.32	3003.6074
9.57	3383.6013
9.82	2995.0522
10.07	6419.275
10.32	8155.11
10.57	5209.803
10.82	4006.3723
11.07	3806.034
11.32	3920.0667
11.57	3996.8296
11.82	3227.4146
12.07	2707.7024
12.32	3708.6187
12.57	2303.167
12.82	1643.565
13.07	3225.3823
13.32	2390.2825
13.57	3239.084
13.82	2423.5083
14.07	3740.11
14.32	3655.9387
14.57	4091.7478
14.82	12410.084
15.07	5196.085
15.32	8136.9824
15.57	2982.715
15.82	4928.362
16.07	4785.265
16.32	5317.6235
16.57	3668.0005
16.82	16485.889
17.07	82484.914
17.32	32928.79
17.57	42925.168
17.82	33830.32
18.07	57871.684
18.32	18258.441
18.57	26727.27
18.82	56521.63
19.07	20672.225
19.32	61469.47
19.57	51375.387
19.82	14537.544
20.07	35766.375
20.32	43252.45
20.57	10435.137
20.82	14809.293
21.07	35420.63
21.32	9683.396
21.57	8791.67
21.82	16857.48
22.07	20137.984
22.32	18206.744
22.57	23917.059
22.82	16171.761
23.07	6291.5796
23.32	9625.734
23.57	8032.14
23.82	8158.219
24.07	13532.566
24.32	19273.697
24.57	11663.918
24.82	7498.6997
25.07	9217.164
25.32	11889.982
25.57	31535.895
25.820002	35059.562
26.070002	11348.582
26.320002	7043.2217
26.570002	12837.783
26.820002	2927.5898
27.070002	9092.312
27.320002	13931.691
27.570002	11922.408
27.820002	10445.961
28.070002	5132.2207
28.320002	35704.57
28.570002	29944.098
28.820002	3010.8167
29.070002	6452.8228
29.320002	6486.829
29.570002	7717.5283
29.820002	2047.057
30.070002	6509.437
30.320002	174113.06
30.570002	27891.354
30.820002	5300.771
31.070002	2309.6755
31.320002	8154.1064
31.570002	11701.434
31.820002	6910.805
32.070004	8696.018
32.320004	2524.9224
32.570004	1929.6573
32.820004	3564.7554
33.070004	1895.0508
33.320004	13364.406
33.570004	27914.955
33.820004	4515.4487
34.070004	5523.177
34.570004	10929.46
34.820004	6742.7075
35.070004	6406.423
35.320004	6091.498
35.570004	2800.0747
35.820004	10068.715
36.070004	3419.188
36.320004	6934.0234
36.570004	17839.92
36.820004	11283.8
37.070004	467.4437
37.320004	727.1125
38.070004	1413.9144
38.320004	2256.9941
39.320004	153.9684
39.820004	1475.1027
40.070004	2640.3274
41.070004	876.7442
41.320004	568.52954
41.570004	3390.214
41.820004	855.22424
42.070004	67.32621
42.570004	552.175
42.820004	1812.6844
43.070004	1934.6399
43.320004	2099.6616
43.570004	3838.7036
43.820004	260.84293
44.320004	589.7734
44.570004	1062.8638
44.820004	850.582
45.070004	99.71679
45.320004	1497.2095
45.570004	589.4946
45.820004	749.96075
46.070004	932.4703
46.320004	3793.201
46.570004	4420.097
46.820004	1173.8024
47.070004	1153.819
47.820004	932.7455
48.070004	1506.317
48.320004	1126.8693
48.570004	1411.9094
48.820004	1348.2437
49.070004	1396.2866
49.320004	384.03647
49.570004	2165.7102
49.820004	6984.011
50.070004	2250.5366
50.320004	502.11844
50.570004	502.11844
50.820004	502.11844
51.070004	502.11844
51.320004	502.11844
51.570004	502.11844
51.820004	502.11844
52.070004	502.11844
52.320004	502.11844
52.570004	502.11844
52.820004	502.11844
53.070004	502.11844
53.320004	502.11844
53.570004	502.11844
53.820004	502.11844
54.070004	502.11844
54.320004	502.11844
54.570004	502.11844
54.820004	502.11844
55.070004	1225.7616
55.320004	1429.8663
55.570004	1429.8663
55.820004	1429.8663
56.070004	1429.8663
56.320004	1429.8663
56.570004	1429.8663
56.820004	1429.8663
57.070004	1429.8663
57.320004	1429.8663
57.570004	1429.8663
57.820004	1429.8663
58.070004	1429.8663
58.320004	1429.8663
58.570004	1429.8663
58.820004	1429.8663
59.070004	1429.8663
59.320004	1429.8663
59.570004	1429.8663
59.820004	1429.8663
60.070004	1429.8663
60.320004	1429.8663
60.570004	1429.8663
60.820004	1429.8663
61.070004	1429.8663
61.320004	1429.8663
61.570004	1429.8663
61.820004	1429.8663
62.070004	1429.8663
62.320004	1429.8663
62.570004	1429.8663
62.820004	1429.8663
63.070004	1429.8663
63.320004	1429.8663
63.570004	1429.8663
63.820004	1429.8663
64.07	1429.8663
64.32	1429.8663
64.57	1429.8663
64.82	1429.8663
65.07	1210.1285
65.32	1148.1512
65.57	1148.1512
65.82	1148.1512
66.07	1148.1512
66.32	1148.1512
66.57	1148.1512
66.82	1148.1512
67.07	1148.1512
67.32	1148.1512
67.57	1148.1512
67.82	1148.1512
68.07	1148.1512
68.32	1148.1512
68.57	1148.1512
68.82	1148.1512
69.07	1148.1512
69.32	1148.1512
69.57	1148.1512
69.82	1148.1512
70.07	1148.1512
70.32	1148.1512
70.57	1148.1512
70.82	1148.1512
71.07	1148.1512
71.32	1148.1512
71.57	1148.1512
71.82	1148.1512
72.07	1148.1512
72.32	1148.1512
72.57	1148.1512
72.82	1148.1512
73.07	1148.1512
73.32	1148.1512
73.57	1148.1512
73.82	1148.1512
74.07	1148.1512
74.32	1148.1512
74.57	1148.1512
74.82	1148.1512
75.07	1862.9059
75.32	2064.5032
75.57	2064.5032
75.82	2064.5032
76.07	2064.5032
76.32	2064.5032
76.57	2064.5032
76.82	2064.5032
77.07	2064.5032
77.32	2064.5032
77.57	2064.5032
77.82	2064.5032
78.07	2064.5032
78.32	2064.5032
78.57	2064.5032
78.82	2064.5032
79.07	2064.5032
79.32	2064.5032
79.57	2064.5032
79.82	2064.5032
80.07	2064.5032
80.32	2064.5032
80.57	2064.5032
80.82	2064.5032
81.07	2064.5032
81.32	2064.5032
81.57	2064.5032
81.82	2064.5032
82.07	2064.5032
82.32	2064.5032
82.57	2064.5032
82.82	2064.5032
83.07	2064.5032
83.32	2064.5032
83.57	2064.5032
83.82	2064.5032
84.07	2064.5032
84.32	2064.5032
84.57	2064.5032
84.82	2064.5032
85.07	2064.5032
85.32	2064.5032
85.57	2632.3918
85.82	3558.9475
86.07	3558.9475
86.32	3558.9475
86.57	3558.9475
86.82	3558.9475
87.07	3558.9475
87.32	3558.9475
87.57	3558.9475
87.82	3558.9475
88.07	3558.9475
88.32	3558.9475
88.57	3558.9475
88.82	3558.9475
89.07	3558.9475
89.32	3558.9475
89.57	3558.9475
89.82	3558.9475
90.07	3558.9475
90.32	3558.9475
90.57	3558.9475
90.82	3558.9475
91.07	3558.9475
91.32	3558.9475
91.57	3558.9475
91.82	3558.9475
92.07	3558.9475
92.32	3558.9475
92.57	3558.9475
92.82	3558.9475
93.07	3558.9475
93.32	3558.9475
93.57	3558.9475
93.82	3558.9475
94.07	3558.9475
94.32	3558.9475
94.57	3558.9475
94.82	3558.9475
95.07	3558.9475
95.32	3558.9475
95.57	3558.9475
95.82	3558.9475
96.07	3558.9475
96.32	3558.9475
96.57	3558.9475
96.82	3558.9475
97.07	2590.4414
97.32	1010.2464
97.57	1010.2464
97.82	1010.2464
98.07	1010.2464
98.32	1010.2464
98.57	1010.2464
98.82	1010.2464
99.07	1010.2464
99.32	1010.2464
99.57	1010.2464
99.82	1010.2464
100.07	1010.2464
100.32	1010.2464
100.57	1010.2464
100.82	1010.2464
101.07	1010.2464
101.32	1010.2464
101.57	1010.2464
101.82	1010.2464
102.07	1010.2464
102.32	1010.2464
102.57	1010.2464
102.82	1010.2464
103.07	6487.049
103.32	6124.652
103.57	1054.6091
103.82	1865.6857
104.07	604.1996
104.57	765.36816
104.82	682.82275
105.32	54.350895
105.57	2222.1003
105.82	1736.8392
106.07	3225.0254
106.32	1446.6486
106.57	598.9245
106.82	686.97876
107.07	1155.1239
107.32	1496.5013
107.57	333.7967
107.82	801.8579
108.07	1274.1415
108.32	455.43756
108.57	2346.7202
108.82	172.29274
109.32	603.4045
109.57	823.9505
109.82	475.55234
110.07	987.531
110.32	1574.026
110.57	594.7037
111.32	1070.4714
111.57	757.6746
111.82	401.28082
112.07	542.0724
112.32	837.13544
112.57	185.72438
112.82	960.20557
113.07	92.7757
113.32	182.04282
113.57	325.75256
113.82	408.4712
114.07	562.19794
114.32	638.5506
114.57	515.45374
114.82	503.34683
115.07	437.84677
115.32	668.9377
115.57	1211.424
115.82	921.7168
116.07	882.1767
116.32	873.6894
116.57	1677.5991
116.82	1517.5563
117.07	1399.3678
117.32	849.69476
117.57	9458.605
117.82	805.0514
118.07	559.8162
118.32	664.95264
118.57	757.6085
118.82	957.50006
119.07	1409.0353
119.32	1692.5168
119.57	1094.4987
119.82	1519.9778
120.07	1822.0048
120.32	1129.1576
120.57	16618.617
120.82	1560.6107
121.07	114.280716
121.32	12771.177
121.57	872705.56
121.82	12296.459
122.07	1159.6194
122.32	1233.7147
122.57	936.197
122.82	919.033
123.07	754.13086
123.32	682.7823
123.57	668.5564
123.82	3056.3345
124.07	749.9525
124.32	1957.1157
124.57	559.4483
124.82	690.5996
125.07	594.76953
125.32	895.93097
125.57	803.4358
125.82	1122.7468
126.07	1578.1119
126.32	369.3705
126.57	3276.348
126.82	457.40143
127.07	439.0784
127.32	387.84747
127.57	988.33984
127.82	846.04565
128.06999	665.5966
128.31999	346.4132
128.56999	321.99603
128.81999	824.8183
129.06999	599.026
129.31999	410.20203
129.56999	887.39594
129.81999	870.9107
130.06999	1346.2362
130.31999	7561.6694
130.56999	16797.807
130.81999	1685.9962
131.06999	1081.2723
131.31999	848.1449
131.56999	882.3993
131.81999	1225.5275
132.06999	522.8183
132.31999	760.3744
132.56999	622.3237
132.81999	1005.1621
133.06999	601.6622
133.31999	6667.3267
133.56999	22648.068
133.81999	640.925
134.06999	602.84155
134.31999	702.12506
134.56999	665.0851
134.81999	714.2297
135.06999	1858.3188
135.31999	867.973
135.56999	2844.2644
135.81999	1931.494
136.06999	1101.7
136.31999	1112.2875
136.56999	821.4359
136.81999	979.71655
137.06999	1340.3595
137.31999	1133.3105
137.56999	1047.2616
137.81999	1007.0963
138.06999	1258.3623
138.31999	1010.54956
138.56999	1015.9542
138.81999	1121.1625
139.06999	1098.7578
139.31999	9779.657
139.56999	1203.8965
139.81999	1274.144
140.06999	2351.8455
140.31999	5530.118
140.56999	1874.225
140.81999	1497.033
141.06999	1632.63
141.31999	1579.7341
141.56999	1589.0325
141.81999	1491.9158
142.06999	1458.8619
142.31999	1554.778
142.56999	2192.5527
142.81999	1518.3693
143.06999	1764.1881
143.31999	2350.2302
143.56999	2058.9368
143.81999	1747.0615
144.06999	1837.4099
144.31999	1984.6808
144.56999	2115.6912
144.81999	1944.6056
145.06999	1926.1724
145.31999	2000.734
145.56999	2333.813
145.81999	2270.2021
146.06999	2101.4954
146.31999	2530.2314
146.56999	2371.672
146.81999	3260.522
147.06999	2654.034
147.31999	5369.035
147.56999	2549.0251
147.81999	2400.9834
148.06999	3645.9773
148.31999	3177.7893
148.56999	3530.5557
148.81999	2781.826
149.06999	2724.9878
149.31999	3163.0562
149.56999	2830.5696
149.81999	3037.74
150.06999	3470.1775
150.31999	3412.85
150.56999	3244.7551
150.81999	3344.6243
151.06999	4058.0176
151.31999	3643.1506
151.56999	3712.2878
151.81999	3640.1907
152.06999	3813.0571
152.31999	4031.1353
152.56999	6428.8306
152.81999	4339.783
153.06999	4115.2124
153.31999	7263.7393
153.56999	4660.805
153.81999	4759.984
154.06999	5264.489
154.31999	4508.6396
154.56999	4773.32
154.81999	22652.516
155.06999	14519.381
155.31999	4606.3423
155.56999	4947.24
155.81999	7775.146
156.06999	12846.364
156.31999	5767.7983
156.56999	5955.202
156.81999	5755.8135
157.06999	7755.784
157.31999	7166.176
157.56999	7619.0703
157.81999	5653.7695
158.06999	6653.422
158.31999	5712.8696
158.56999	7069.2114
158.81999	7288.812
159.06999	6568.6064
159.31999	6857.675
159.56999	6650.887
159.81999	5810.3843
160.06999	7280.0283
160.31999	8303.509
160.56999	6940.063
160.81999	7859.8013
161.06999	8997.67
161.31999	10466.933
161.56999	7477.8843
161.81999	8152.8286
162.06999	9447.979
162.31999	9540.71
162.56999	10932.696
162.81999	10501.635
163.06999	9082.929
163.31999	12348.475
163.56999	8981.193
163.81999	11186.247
164.06999	14790.042
164.31999	11759.319
164.56999	10592.368
164.81999	11127.396
165.06999	9491.314
165.31999	11886.537
165.56999	22670.225
165.81999	32560.367
166.06999	12971.698
166.31999	13607.074
166.56999	14133.86
166.81999	11760.722
167.06999	17749.85
167.31999	14676.482
167.56999	14674.568
167.81999	14532.006
168.06999	11475.219
168.31999	11687.408
168.56999	19507.54
168.81999	13728.095
169.06999	19958.334
169.31999	21197.586
169.56999	23953.39
169.81999	19726.7
170.06999	21272.258
170.31999	15871.385
170.56999	17776.18
170.81999	18198.582
171.06999	19360.129
171.31999	20306.227
171.56999	26639.773
171.81999	26819.824
172.06999	26677.918
172.31999	23561.541
172.56999	29469.133
172.81999	22925.367
173.06999	16559.945
173.31999	18607.975
173.56999	20914.13
173.81999	21182.389
174.06999	27050.635
174.31999	28796.33
174.56999	33244.465
174.81999	28895.654
175.06999	35198.055
175.31999	34995.094
175.56999	36357.164
175.81999	35995.863
176.06999	35285.86
176.31999	34174.03
176.56999	31130.37
176.81999	39645.504
177.06999	43601.37
177.31999	48816.516
177.56999	36676.754
177.81999	45914.445
178.06999	48638.625
178.31999	47543.746
178.56999	49334.547
178.81999	51909.523
179.06999	55580.5
179.31999	41383.21
179.56999	45392.863
179.81999	49461.96
180.06999	52486.766
180.31999	53311.76
180.56999	55208.805
180.81999	76458.18
181.06999	57343.08
181.31999	53748.227
181.56999	96473.67
181.81999	79109.53
182.06999	63073.098
182.31999	71061.19
182.56999	69932.61
182.81999	65358.605
183.06999	67405.22
183.31999	70947.01
183.56999	73133.77
183.81999	77841.21
184.06999	61490.133
184.31999	68020.39
184.56999	66650.63
184.81999	57025.36
185.06999	61762.24
185.31999	68468.82
185.56999	85679.25
185.81999	71458.4
186.06999	77612.16
186.31999	77785.69
186.56999	76874.55
186.81999	94782.61
187.06999	96064.55
187.31999	95126.445
187.56999	91741.32
187.81999	88973.766
188.06999	85258.1
188.31999	105698.51
188.56999	101866.81
188.81999	103585.11
189.06999	116247.664
189.31999	116433.305
189.56999	117265.44
189.81999	99180.27
190.06999	110016.086
190.31999	121228.71
190.56999	113598.79
190.81999	129757.555
191.06999	112764.79
191.31999	121295.586
191.56999	135244.19
191.81999	126231.45
192.06999	141932.22
192.31999	134344.1
192.56999	132977.31
192.81999	136203.33
193.06999	103204.56
193.31999	101356.875
193.56999	92121.56
193.81999	125081.94
194.06999	152013.97
194.31999	176742.33
194.56999	157739.44
194.81999	186756.97
195.06999	160203.72
195.31999	164551.1
195.56999	169684.27
195.81999	172102.92
196.06999	169501.2
196.31999	170681.88
196.56999	196409.6
196.81999	205102.64
197.06999	192774.23
197.31999	190358.72
197.56999	190957.98
197.81999	188744.81
198.06999	200525.56
198.31999	201849.92
198.56999	192290.84
198.81999	186145.83
199.06999	192962.06
199.31999	221040.2
199.56999	208699.1
199.81999	202785.78
200.06999	218114.16
200.31999	223696.73
200.56999	228878.25
200.81999	221105.69
201.06999	228037.53
201.31999	247098.11
201.56999	238822.06
201.81999	259883.36
202.06999	248032.27
202.31999	249741.28
202.56999	207154.3
202.81999	258946.42
203.06999	278006.75
203.31999	257897.42
203.56999	272711.72
203.81999	279637.16
204.06999	278221.94
204.31999	304072.84
204.56999	312187.44
204.81999	299489.62
205.06999	309011.4
205.31999	322901.78
205.56999	301379.94
205.81999	311413.2
206.06999	334450.3
206.31999	299263.62
206.56999	334413.3
206.81999	346852.06
207.06999	348199.12
207.31999	355677.78
207.56999	371075.78
207.81999	373414.1
208.06999	388845.75
208.31999	388814.94
208.56999	408949.84
208.81999	486830.56
209.06999	470988.9
209.31999	551109.06
209.56999	578614.2
209.81999	615263.9
210.06999	591002.1
210.31999	667306.7
210.56999	837162.4
210.81999	722547.8
211.06999	630455.1
211.31999	861199.9
211.56999	756334.5
211.81999	966805.1
212.06999	1085572.6
212.31999	658536.7
212.56999	619822.3
212.81999	893639.3
213.06999	730624.75
213.31999	835950.2
213.56999	690706.7
213.81999	896320.8
214.06999	1056563.9
214.31999	1189264.1
214.56999	1032878.06
214.81999	1067024.2
215.06999	966196.25
215.31999	1145138.2
215.56999	941236.25
215.81999	616596.94
216.06999	972769.3
216.31999	1012857.5
216.56999	864718.3
216.81999	760731.25
217.06999	821066.25
217.31999	985498.0
217.56999	774844.25
217.81999	786504.75
218.06999	1357341.4
218.31999	1266054.2
218.56999	1231637.1
218.81999	888794.2
219.06999	1077448.4
219.31999	1348883.8
219.56999	1040942.94
219.81999	1362945.0
220.06999	1012023.6
220.31999	1573496.6
220.56999	1435589.6
220.81999	1000181.4
221.06999	852273.4
221.31999	1094720.4
221.56999	1159572.1
221.81999	804332.5
222.06999	1394217.1
222.31999	1296293.4
222.56999	1257034.5
222.81999	1208760.0
223.06999	1169724.0
223.31999	1836520.1
223.56999	1863452.6
223.81999	1468672.5
224.06999	1580747.9
224.31999	1300935.5
224.56999	1445431.2
224.81999	1757567.2
225.06999	1396550.6
225.31999	1332003.9
225.56999	1364596.0
225.81999	1392971.2
226.06999	1205608.9
226.31999	1239720.6
226.56999	954182.8
226.81999	994616.75
227.06999	911268.8
227.31999	1012462.2
227.56999	1021136.7
227.81999	1216886.0
228.06999	1433345.2
228.31999	1558235.1
228.56999	1572774.0
228.81999	1279723.9
229.06999	1241117.8
229.31999	1372063.9
229.56999	1608731.6
229.81999	982671.4
230.06999	1150661.4
230.31999	1285354.4
230.56999	1824639.4
230.81999	1767794.0
231.06999	1137275.8
231.31999	1032703.06
231.56999	1624043.2
231.81999	1656612.6
232.06999	1106295.8
232.31999	1886517.0
232.56999	1398334.1
232.81999	1413988.1
233.06999	1549078.0
233.31999	1178052.5
233.56999	1655625.8
233.81999	999429.9
234.06999	1285573.4
234.31999	1213043.0
234.56999	938072.25
234.81999	1002965.5
235.06999	1546531.1
235.31999	1834039.2
235.56999	1573271.0
235.81999	1797339.4
236.06999	1118513.0
236.31999	1616854.8
236.56999	1365147.4
236.81999	1265860.2
237.06999	1843519.0
237.31999	1527278.6
237.56999	1465514.1
237.81999	1836467.1
238.06999	1192962.8
238.31999	800902.75
238.56999	1601109.2
238.81999	1317236.1
239.06999	1822073.9
239.31999	1838694.0
239.56999	964552.0
239.81999	1511709.0
240.06999	1440131.6
240.31999	1662349.2
240.56999	1026431.6
240.81999	1334244.9
241.06999	1215342.8
241.31999	1330938.6
241.56999	1723936.5
241.81999	2045135.8
242.06999	2110588.8
242.31999	2331587.0
242.56999	2024885.8
242.81999	2354474.2
243.06999	2262990.0
243.31999	2089335.5
243.56999	1869131.9
243.81999	2183568.8
244.06999	2072922.9
244.31999	2209162.0
244.56999	2083664.6
244.81999	1699193.2
245.06999	1737324.6
245.31999	1588138.1
245.56999	1728775.0
245.81999	1838281.6
246.06999	1636263.0
246.31999	1470110.5
246.56999	1810625.6
246.81999	1868304.8
247.06999	1912459.8
247.31999	1771109.8
247.56999	2199577.2
247.81999	1911214.6
248.06999	1841033.8
248.31999	1369780.8
248.56999	1740194.6
248.81999	1447512.5
249.06999	1103080.2
249.31999	1849674.4
249.56999	2295097.8
249.81999	2308271.2
250.06999	2230828.2
250.31999	2114211.0
250.56999	2191282.0
250.81999	1734579.0
251.06999	2121922.2
251.31999	1954952.2
251.56999	1298901.4
251.81999	1509707.5
252.06999	1665476.8
252.31999	1452738.2
252.56999	1468454.1
252.81999	1424272.5
253.06999	1669383.0
253.31999	1971462.9
253.56999	1905178.2
253.81999	1885662.2
254.06999	1902473.4
254.31999	2288142.5
254.56999	2010223.9
254.81999	2078892.0
255.06999	1945743.5
255.31999	2872187.8
255.56999	3035462.8
255.81999	2772518.0
256.07	3293511.8
256.32	2306125.5
256.57	3770787.8
256.82	3690081.0
257.07	4446185.0
257.32	4684636.0
257.57	2987377.2
257.82	3866540.8
258.07	5536751.0
258.32	4955653.5
258.57	2611579.0
258.82	3950719.8
259.07	5723890.0
259.32	3355874.0
259.57	3845881.2
259.82	2613245.2
260.07	2207896.0
260.32	4192358.2
260.57	3169846.8
260.82	2522098.2
261.07	3330040.2
261.32	2083631.2
261.57	3498712.2
261.82	3088501.8
262.07	4162230.5
262.32	3855157.5
262.57	3899939.5
262.82	3086707.5
263.07	2826399.5
263.32	3360510.5
263.57	5902946.0
263.82	8419020.0
264.07	7622807.0
264.32	10575474.0
264.57	7566727.5
264.82	6231635.0
265.07	6404805.0
265.32	7495947.5
265.57	9184313.0
265.82	8955304.0
266.07	9333764.0
266.32	6784877.5
266.57	8315371.5
266.82	8236552.0
267.07	8212300.5
267.32	6217376.5
267.57	9972148.0
267.82	8071736.5
268.07	7570481.0
268.32	7837335.0
268.57	7685362.5
268.82	8015995.0
269.07	6391823.0
269.32	8119230.0
269.57	6573221.5
269.82	7733178.0
270.07	10090088.0
270.32	8333570.5
270.57	9936256.0
270.82	7717886.0
271.07	8956593.0
271.32	9460230.0
271.57	6505860.5
271.82	7803187.5
272.07	3782183.8
272.32	6876105.0
272.57	7063148.0
272.82	7298834.5
273.07	9898738.0
273.32	7976409.5
273.57	7934455.5
273.82	5190879.0
274.07	4584777.0
274.32	3894115.0
274.57	5767427.0
274.82	4536252.5
275.07	3407285.2
275.32	8053742.0
275.57	4725027.0
275.82	8175401.0
276.07	9499775.0
276.32	7201031.0
276.57	10791874.0
276.82	8196864.5
277.07	8701070.0
277.32	9492570.0
277.57	9489667.0
277.82	6844199.5
278.07	5855643.0
278.32	5963176.0
278.57	6770492.0
278.82	5685901.0
279.07	4174527.5
279.32	2916856.8
279.57	2765587.2
279.82	1989355.6
280.07	2757049.5
280.32	2537023.0
280.57	3207889.0
280.82	4896576.0
281.07	6300115.0
281.32	6354764.0
281.57	10209616.0
281.82	9009654.0
282.07	10657313.0
282.32	10527236.0
282.57	10720003.0
282.82	10722947.0
283.07	13246066.0
283.32	12491000.0
283.57	9553136.0
283.82	13597194.0
284.07	10960026.0
284.32	10312812.0
284.57	10521821.0
284.82	6755393.0
285.07	4000836.2
285.32	1846237.6
285.57	5177677.0
285.82	8298579.5
286.07	11778443.0
286.32	13115767.0
286.57	14269945.0
286.82	11741392.0
287.07	12715640.0
287.32	15023055.0
287.57	12244886.0
287.82	10753570.0
288.07	7512778.5
288.32	6364621.0
288.57	14218323.0
288.82	12766223.0
289.07	12570163.0
289.32	13817733.0
289.57	14836077.0
289.82	17332540.0
290.07	23174762.0
290.32	18937344.0
290.57	21385112.0
290.82	18656708.0
291.07	18264274.0
291.32	22672914.0
291.57	16852800.0
291.82	18360526.0
292.07	18317852.0
292.32	18881406.0
292.57	15059023.0
292.82	14257890.0
293.07	18303448.0
293.32	21066976.0
293.57	21868838.0
293.82	11933481.0
294.07	16159521.0
294.32	18777848.0
294.57	18895332.0
294.82	13638338.0
295.07	15872749.0
295.32	21116694.0
295.57	18431822.0
295.82	18374032.0
296.07	19388284.0
296.32	22445722.0
296.57	14497967.0
296.82	12771822.0
297.07	12613966.0
297.32	13630354.0
297.57	20487000.0
297.82	25657750.0
298.07	17423016.0
298.32	10279404.0
298.57	10102303.0
298.82	14366018.0
299.07	21276554.0
299.32	18223602.0
299.57	12334413.0
299.82	20074846.0
300.07	8181274.5
300.32	9810665.0
300.57	17448972.0
300.82	10759880.0
301.07	17418014.0
301.32	15526931.0
301.57	17885228.0
301.82	15157719.0
302.07	6587430.5
302.32	18657802.0
302.57	14115562.0
302.82	24770778.0
303.07	19566982.0
303.32	23617312.0
303.57	25558548.0
303.82	15002557.0
304.07	20936160.0
304.32	18791714.0
304.57	24333240.0
304.82	15484360.0
305.07	22028906.0
305.32	29361560.0
305.57	20349412.0
305.82	13028411.0
306.07	16389143.0
306.32	23836712.0
306.57	18610162.0
306.82	14819615.0
307.07	25398202.0
307.32	23240226.0
307.57	18243920.0
307.82	21605608.0
308.07	25683704.0
308.32	16062325.0
308.57	29172004.0
308.82	19935422.0
309.07	19869348.0
309.32	12828668.0
309.57	21402106.0
309.82	16136482.0
310.07	12440189.0
310.32	18526030.0
310.57	22983592.0
310.82	26376202.0
311.07	26072292.0
311.32	29091130.0
311.57	26716408.0
311.82	18820908.0
312.07	11689166.0
312.32	22953066.0
312.57	22717510.0
312.82	23762828.0
313.07	23400926.0
313.32	13309784.0
313.57	20862440.0
313.82	26314886.0
314.07	27277996.0
314.32	22937774.0
314.57	8107562.5
314.82	15188331.0
315.07	26448966.0
315.32	24692018.0
315.57	21631172.0
315.82	13746239.0
316.07	22582180.0
316.32	32750452.0
316.57	28207222.0
316.82	30213254.0
317.07	41102984.0
317.32	47072336.0
317.57	42061204.0
317.82	32340162.0
318.07	24850600.0
318.32	23242688.0
318.57	32912684.0
318.82	44072700.0
319.07	37783536.0
319.32	22833044.0
319.57	28742928.0
319.82	41508080.0
320.07	33005498.0
320.32	40434228.0
320.57	42712530.0
320.82	33340454.0
321.07	24930154.0
321.32	21654324.0
321.57	34592788.0
321.82	34641700.0
322.07	36780060.0
322.32	34361092.0
322.57	29157564.0
322.82	18323784.0
323.07	27357710.0
323.32	27826952.0
323.57	22235926.0
323.82	31975774.0
324.07	39653880.0
324.32	30520508.0
324.57	50064820.0
324.82	26464746.0
325.07	40484530.0
325.32	32687252.0
325.57	50132556.0
325.82	51038760.0
326.07	43022356.0
326.32	45654124.0
326.57	45213136.0
326.82	46009240.0
327.07	34408732.0
327.32	42216244.0
327.57	46073948.0
327.82	36702530.0
328.07	38039530.0
328.32	41516656.0
328.57	42613140.0
328.82	42327524.0
329.07	47442444.0
329.32	51860204.0
329.57	47343876.0
329.82	53566916.0
330.07	50142030.0
330.32	40051370.0
330.57	37439388.0
330.82	43057320.0
331.07	45080616.0
331.32	35828150.0
331.57	37062416.0
331.82	46400330.0
332.07	42585036.0
332.32	35557910.0
332.57	48606570.0
332.82	40527956.0
333.07	46018264.0
333.32	46030052.0
333.57	31318642.0
333.82	41827050.0
334.07	38335944.0
334.32	43576270.0
334.57	43327840.0
334.82	33249944.0
335.07	38131628.0
335.32	44420080.0
335.57	41907524.0
335.82	36151204.0
336.07	15255446.0
336.32	38724620.0
336.57	40974480.0
336.82	31410710.0
337.07	23980586.0
337.32	22893570.0
337.57	45301544.0
337.82	39722520.0
338.07	28848454.0
338.32	32931898.0
338.57	45880210.0
338.82	33398292.0
339.07	42927436.0
339.32	25144708.0
339.57	40631140.0
339.82	40074770.0
340.07	48294252.0
340.32	35657948.0
340.57	32993128.0
340.82	34771560.0
341.07	41009500.0
341.32	27184624.0
341.57	28493528.0
341.82	34925670.0
342.07	42340856.0
342.32	31015742.0
342.57	37991096.0
342.82	40744940.0
343.07	46948092.0
343.32	37106536.0
343.57	51013500.0
343.82	35737256.0
344.07	23465366.0
344.32	22335698.0
344.57	34756252.0
344.82	44433590.0
345.07	50291984.0
345.32	32227648.0
345.57	54129012.0
345.82	33173024.0
346.07	27982800.0
346.32	43287164.0
346.57	35735400.0
346.82	45669656.0
347.07	51311704.0
347.32	33344814.0
347.57	27491816.0
347.82	38346816.0
348.07	50167384.0
348.32	40258404.0
348.57	50996000.0
348.82	49193052.0
349.07	34103304.0
349.32	36068216.0
349.57	38516940.0
349.82	40930200.0
350.07	48370304.0
350.32	54921090.0
350.57	47919196.0
350.82	46115652.0
351.07	39368252.0
351.32	39479148.0
351.57	38769890.0
351.82	47377292.0
352.07	33898270.0
352.32	35079530.0
352.57	23265998.0
352.82	47652904.0
353.07	43912332.0
353.32	43569484.0
353.57	45709040.0
353.82	50282936.0
354.07	54335388.0
354.32	52738700.0
354.57	53587960.0
354.82	44142012.0
355.07	49685210.0
355.32	39167124.0
355.57	41359670.0
355.82	50629200.0
356.07	37974920.0
356.32	61242628.0
356.57	25022806.0
356.82	40048330.0
357.07	28818354.0
357.32	36010516.0
357.57	40703230.0
357.82	39529908.0
358.07	26539882.0
358.32	42745372.0
358.57	21143716.0
358.82	30926444.0
359.07	45103410.0
359.32	44957536.0
359.57	43530656.0
359.82	55032836.0
360.07	57051580.0
360.32	36737580.0
360.57	35926140.0
360.82	35435932.0
361.07	36849616.0
361.32	40825236.0
361.57	49655364.0
361.82	25970478.0
362.07	37556756.0
362.32	46820116.0
362.57	54913230.0
362.82	58013784.0
363.07	31477766.0
363.32	41570176.0
363.57	33592780.0
363.82	47494964.0
364.07	55012990.0
364.32	46628440.0
364.57	43485624.0
364.82	28965214.0
365.07	39228076.0
365.32	57562692.0
365.57	52966716.0
365.82	60547730.0
366.07	53155148.0
366.32	52888910.0
366.57	48383336.0
366.82	46920800.0
367.07	49752824.0
367.32	55681296.0
367.57	55872950.0
367.82	50452876.0
368.07	38950376.0
368.32	45631080.0
368.57	41187516.0
368.82	40482116.0
369.07	54678976.0
369.32	49436640.0
369.57	57844664.0
369.82	56188230.0
370.07	58517084.0
370.32	40635560.0
370.57	37868812.0
370.82	36761800.0
371.07	48060164.0
371.32	60212870.0
371.57	60032750.0
371.82	52365172.0
372.07	21970110.0
372.32	39620824.0
372.57	55841560.0
372.82	42842092.0
373.07	49360604.0
373.32	30840746.0
373.57	21378868.0
373.82	33978628.0
374.07	55332332.0
374.32	39979230.0
374.57	28559352.0
374.82	26488486.0
375.07	34999424.0
375.32	57226216.0
375.57	70140010.0
375.82	30815834.0
376.07	45953890.0
376.32	49647200.0
376.57	58679420.0
376.82	46494870.0
377.07	42677856.0
377.32	65058650.0
377.57	58602384.0
377.82	56034220.0
378.07	82739120.0
378.32	67715864.0
378.57	70723470.0
378.82	51084880.0
379.07	53336890.0
379.32	55899564.0
379.57	51209130.0
379.82	35217644.0
380.07	55055816.0
380.32	76621750.0
380.57	56411212.0
380.82	60166732.0
381.07	72369736.0
381.32	66986340.0
381.57	39166990.0
381.82	66985716.0
382.07	30061320.0
382.32	54442810.0
382.57	30385878.0
382.82	34351880.0
383.07	38605560.0
383.32	22327136.0
383.57	35766812.0
383.82	26572764.0
384.07	34838560.0
384.32	55650508.0
384.57	60482268.0
384.82	75783416.0
385.07	61990896.0
385.32	71002660.0
385.57	53786948.0
385.82	46109424.0
386.07	42883204.0
386.32	64257920.0
386.57	59835148.0
386.82	59394950.0
387.07	57951430.0
387.32	47734610.0
387.57	62312650.0
387.82	42667664.0
388.07	75652300.0
388.32	68501780.0
388.57	38381800.0
388.82	39832110.0
389.07	50858130.0
389.32	57299784.0
389.57	51921250.0
389.82	63944964.0
390.07	59088908.0
390.32	50952424.0
390.57	49729360.0
390.82	67065130.0
391.07	64396496.0
391.32	68862824.0
391.57	70023690.0
391.82	64254364.0
392.07	46971732.0
392.32	59964900.0
392.57	60802580.0
392.82	38802268.0
393.07	24231492.0
393.32	13828360.0
393.57	22235898.0
393.82	39017550.0
394.07	57849350.0
394.32	47471744.0
394.57	72703510.0
394.82	57848700.0
395.07	73098990.0
395.32	68110904.0
395.57	68258904.0
395.82	77001410.0
396.07	56169864.0
396.32	45733548.0
396.57	30297516.0
396.82	14620926.0
397.07	27390392.0
397.32	41583940.0
397.57	53567410.0
397.82	76992984.0
398.07	75777330.0
398.32	68457670.0
398.57	72462056.0
398.82	89450450.0
399.07	75548060.0
399.32	82044090.0
399.57	73400776.0
399.82	65184676.0
400.07	83180030.0
400.32	85879220.0
400.57	63326180.0
400.82	90306400.0
401.07	75760150.0
401.32	81031240.0
401.57	80881736.0
401.82	83980460.0
402.07	77262490.0
402.32	80907210.0
402.57	71394280.0
402.82	87450270.0
403.07	59925876.0
403.32	61497630.0
403.57	68649480.0
403.82	87651690.0
404.07	79365900.0
404.32	82313784.0
404.57	51165136.0
404.82	81485090.0
405.07	86235304.0
405.32	81278100.0
405.57	79588550.0
405.82	68260776.0
406.07	87735210.0
406.32	54056972.0
406.57	74202080.0
406.82	77474824.0
407.07	62019200.0
407.32	82882050.0
407.57	67453720.0
407.82	69321050.0
408.07	86732776.0
408.32	73928504.0
408.57	78989670.0
408.82	90442280.0
409.07	88089520.0
409.32	88901704.0
409.57	77998080.0
409.82004	79031470.0
410.07004	54930188.0
410.32004	62774636.0
410.57004	76801790.0
410.82004	81292580.0
411.07004	84124536.0
411.32004	85256140.0
411.57004	86096664.0
411.82004	78937890.0
412.07004	86671430.0
412.32004	84987576.0
412.57004	85931200.0
412.82004	73098296.0
413.07004	85302280.0
413.32004	65140710.0
413.57004	82904020.0
413.82004	84916696.0
414.07004	86435576.0
414.32004	64358916.0
414.57004	90785760.0
414.82004	82105650.0
415.07004	80323976.0
415.32004	76442030.0
415.57004	77179940.0
415.82004	80404990.0
416.07004	86982616.0
416.32004	82791140.0
416.57004	91263944.0
416.82004	82018820.0
417.07004	80741540.0
417.32004	68924616.0
417.57004	73455160.0
417.82004	74402480.0
418.07004	81732380.0
418.32004	87059170.0
418.57004	76615380.0
418.82004	71088376.0
419.07004	78022890.0
419.32004	91066580.0
419.57004	70259230.0
419.82004	70200424.0
420.07004	72227064.0
420.32004	69081640.0
420.57004	74837736.0
420.82004	91118504.0
421.07004	79896300.0
421.32004	86321470.0
421.57004	74268280.0
421.82004	75043620.0
422.07004	91678744.0
422.32004	77467970.0
422.57004	52014852.0
422.82004	72581256.0
423.07004	83145610.0
423.32004	78135110.0
423.57004	72009890.0
423.82004	73150030.0
424.07004	77490870.0
424.32004	70570824.0
424.57004	81039256.0
424.82004	69585320.0
425.07004	66199680.0
425.32004	72963256.0
425.57004	74565470.0
425.82004	81496900.0
426.07004	59767404.0
426.32004	76967580.0
426.57004	76049690.0
426.82004	74084610.0
427.07004	48144948.0
427.32004	62745204.0
427.57004	63631460.0
427.82004	80338616.0
428.07004	64587064.0
428.32004	71570860.0
428.57004	60781840.0
428.82004	66937604.0
429.07004	54860052.0
429.32004	68871530.0
429.57004	63573656.0
429.82004	49491556.0
430.07004	43500896.0
430.32004	43590056.0
430.57004	47067176.0
430.82004	37722372.0
431.07004	42201156.0
431.32004	55718976.0
431.57004	82136810.0
431.82004	89921930.0
432.07004	80747816.0
432.32004	62462644.0
432.57004	50724776.0
432.82004	79809050.0
433.07004	79548130.0
433.32004	81846550.0
433.57004	86706020.0
433.82004	57536316.0
434.07004	46923332.0
434.32004	69660570.0
434.57004	78695650.0
434.82004	74746010.0
435.07004	65787810.0
435.32004	72994220.0
435.57004	72813840.0
435.82004	84748230.0
436.07004	79646024.0
436.32004	78068430.0
436.57004	87353784.0
436.82004	80388920.0
437.07004	73091750.0
437.32004	78517880.0
437.57004	70538290.0
437.82004	79553900.0
438.07004	85501950.0
438.32004	51854590.0
438.57004	69411190.0
438.82004	73665030.0
439.07004	67265480.0
439.32004	78403816.0
439.57004	72099850.0
439.82004	80696020.0
440.07004	65688650.0
440.32004	82205040.0
440.57004	70549040.0
440.82004	73359830.0
441.07004	84847870.0
441.32004	86452584.0
441.57004	71339690.0
441.82004	80480420.0
442.07004	81572700.0
442.32004	79198060.0
442.57004	86693256.0
442.82004	84805570.0
443.07004	78405960.0
443.32004	84768710.0
443.57004	74579540.0
443.82004	93378200.0
444.07004	83137384.0
444.32004	70960200.0
444.57004	87909080.0
444.82004	88492790.0
445.07004	83083670.0
445.32004	84255860.0
445.57004	65622880.0
445.82004	73398584.0
446.07004	76667390.0
446.32004	85624280.0
446.57004	79106140.0
446.82004	82957704.0
447.07004	79964930.0
447.32004	91013000.0
447.57004	90401144.0
447.82004	97510810.0
448.07004	81273870.0
448.32004	78007470.0
448.57004	95745656.0
448.82004	83869680.0
449.07004	83742070.0
449.32004	92806720.0
449.57004	80226080.0
449.82004	88586984.0
450.07004	89849370.0
450.32004	97393544.0
450.57004	96874570.0
450.82004	94531384.0
451.07004	96624296.0
451.32004	95180510.0
451.57004	90863970.0
451.82004	87911560.0
452.07004	93696050.0
452.32004	88016920.0
452.57004	80527944.0
452.82004	78305384.0
453.07004	83275020.0
453.32004	85350120.0
453.57004	79544300.0
453.82004	94783544.0
454.07004	86866400.0
454.32004	94722790.0
454.57004	83944360.0
454.82004	85670940.0
455.07004	87163920.0
455.32004	89592210.0
455.57004	81674936.0
455.82004	94817544.0
456.07004	95103070.0
456.32004	93280830.0
456.57004	89422080.0
456.82004	94696940.0
457.07004	85670776.0
457.32004	91566510.0
457.57004	93256930.0
457.82004	89717490.0
458.07004	80941464.0
458.32004	85734870.0
458.57004	85250060.0
458.82004	88804370.0
459.07004	86607790.0
459.32004	85614660.0
459.57004	85288130.0
459.82004	89996936.0
460.07004	80814260.0
460.32004	87338376.0
460.57004	88513310.0
460.82004	92725304.0
461.07004	87635460.0
461.32004	86130300.0
461.57004	89472024.0
461.82004	84686720.0
462.07004	92060940.0
462.32004	92606350.0
462.57004	88593910.0
462.82004	91883710.0
463.07004	94313384.0
463.32004	86920340.0
463.57004	92304550.0
463.82004	87234730.0
464.07004	95060020.0
464.32004	94758680.0
464.57004	90202710.0
464.82004	84761230.0
465.07004	93191430.0
465.32004	91352940.0
465.57004	84546540.0
465.82004	92798820.0
466.07004	96278360.0
466.32004	93055500.0
466.57004	89220780.0
466.82004	75518400.0
467.07004	94521256.0
467.32004	91959010.0
467.57004	90255670.0
467.82004	87969860.0
468.07004	87722136.0
468.32004	93139790.0
468.57004	85831320.0
468.82004	93559176.0
469.07004	85831224.0
469.32004	93765630.0
469.57004	94582776.0
469.82004	82525560.0
470.07004	84229070.0
470.32004	80221120.0
470.57004	91736650.0
470.82004	82713620.0
471.07004	87989910.0
471.32004	79671630.0
471.57004	89673450.0
471.82004	95536296.0
472.07004	94052290.0
472.32004	89743370.0
472.57004	96625784.0
472.82004	82337520.0
473.07004	84684320.0
473.32004	87033250.0
473.57004	88371320.0
473.82004	90378540.0
474.07004	89339590.0
474.32004	93010984.0
474.57004	91445816.0
474.82004	96303050.0
475.07004	95029816.0
475.32004	89695970.0
475.57004	87090616.0
475.82004	89985370.0
476.07004	94043570.0
476.32004	86588340.0
476.57004	85577950.0
476.82004	91178616.0
477.07004	92704400.0
477.32004	91336710.0
477.57004	94033944.0
477.82004	98045700.0
478.07004	92010920.0
478.32004	90607920.0
478.57004	86366200.0
478.82004	88687030.0
479.07004	90775220.0
479.32004	89085070.0
479.57004	94627880.0
479.82004	89586744.0
480.07004	89286190.0
480.32004	93120250.0
480.57004	89761500.0
480.82004	87049496.0
481.07004	89963416.0
481.32004	87826730.0
481.57004	93464910.0
481.82004	89825170.0
482.07004	91380984.0
482.32004	85372760.0
482.57004	92965560.0
482.82004	89276670.0
483.07004	91306430.0
483.32004	90536270.0
483.57004	85432730.0
483.82004	89739704.0
484.07004	77581176.0
484.32004	87084776.0
484.57004	89838300.0
484.82004	87720810.0
485.07004	89722510.0
485.32004	88257250.0
485.57004	76544720.0
485.82004	78759140.0
486.07004	51103844.0
486.32004	67993170.0
486.57004	78361220.0
486.82004	84227576.0
487.07004	76318420.0
487.32004	80439810.0
487.57004	84401860.0
487.82004	82209830.0
488.07004	87882280.0
488.32004	90154936.0
488.57004	83790696.0
488.82004	76648510.0
489.07004	74554200.0
489.32004	89965544.0
489.57004	92125170.0
489.82004	95767160.0
490.07004	87641464.0
490.32004	80331760.0
490.57004	94607150.0
490.82004	87416180.0
491.07004	79748424.0
491.32004	85967370.0
491.57004	91831224.0
491.82004	75076410.0
492.07004	78626700.0
492.32004	85720820.0
492.57004	83988160.0
492.82004	92080310.0
493.07004	93341990.0
493.32004	81924570.0
493.57004	88473330.0
493.82004	79150270.0
494.07004	84440340.0
494.32004	89088230.0
494.57004	87534910.0
494.82004	91452440.0
495.07004	92501870.0
495.32004	91330820.0
495.57004	88136790.0
495.82004	73562270.0
496.07004	95005930.0
496.32004	91501336.0
496.57004	86107230.0
496.82004	87347256.0
497.07004	86770000.0
497.32004	90457740.0
497.57004	91163710.0
497.82004	86513820.0
498.07004	80308620.0
498.32004	69823816.0
498.57004	81091850.0
498.82004	87685900.0
499.07004	86694820.0
499.32004	81713170.0
499.57004	92210470.0
499.82004	86137176.0
500.07004	80434920.0
500.32004	85508190.0
500.57004	78797050.0
500.82004	86688570.0
501.07004	84803100.0
501.32004	69239710.0
501.57004	81134800.0
501.82004	78707710.0
502.07004	83020410.0
502.32004	81641110.0
502.57004	89551590.0
502.82004	84803290.0
503.07004	88136260.0
503.32004	93478936.0
503.57004	80968904.0
503.82004	83391600.0
504.07004	66489340.0
504.32004	87390490.0
504.57004	94396120.0
504.82004	84653690.0
505.07004	74979830.0
505.32004	90786400.0
505.57004	92303080.0
505.82004	91748050.0
506.07004	89961470.0
506.32004	92648310.0
506.57004	80760376.0
506.82004	81796970.0
507.07004	92928376.0
507.32004	84740770.0
507.57004	81028140.0
507.82004	86026856.0
508.07004	73413600.0
508.32004	74734940.0
508.57004	88753656.0
508.82004	83978420.0
509.07004	88826860.0
509.32004	90018630.0
509.57004	90372080.0
509.82004	76524760.0
510.07004	85315930.0
510.32004	87673380.0
510.57004	88463840.0
510.82004	78535810.0
511.07004	77249896.0
511.32004	89617976.0
511.57004	85736080.0
511.82004	89406670.0
512.07	86267096.0
512.32	81293680.0
512.57	75822050.0
512.82	77448270.0
513.07	84698184.0
513.32	82998920.0
513.57	88727460.0
513.82	74546264.0
514.07	83843464.0
514.32	76718720.0
514.57	82671384.0
514.82	81403030.0
515.07	78714820.0
515.32	81501730.0
515.57	83869240.0
515.82	86461760.0
516.07	87997070.0
516.32	81643100.0
516.57	73789030.0
516.82	55297870.0
517.07	76058450.0
517.32	55299460.0
517.57	84758700.0
517.82	84092984.0
518.07	84092350.0
518.32	50331864.0
518.57	77004216.0
518.82	82214070.0
519.07	82943410.0
519.32	78800280.0
519.57	73170664.0
519.82	82183384.0
520.07	88660320.0
520.32	83686600.0
520.57	71439210.0
520.82	76648690.0
521.07	83442184.0
521.32	88658350.0
521.57	76669090.0
521.82	82128936.0
522.07	85503810.0
522.32	87006984.0
522.57	76262776.0
522.82	75623770.0
523.07	84033500.0
523.32	80380940.0
523.57	77723750.0
523.82	87828120.0
524.07	88508690.0
524.32	82702330.0
524.57	84963336.0
524.82	83760470.0
525.07	82657256.0
525.32	87899460.0
525.57	80660040.0
525.82	81851580.0
526.07	82517560.0
526.32	71405640.0
526.57	70169790.0
526.82	73227440.0
527.07	62226692.0
527.32	76786150.0
527.57	76670616.0
527.82	86845790.0
528.07	80078660.0
528.32	76620650.0
528.57	87232856.0
528.82	87613840.0
529.07	90365144.0
529.32	82902930.0
529.57	83481960.0
529.82	73511950.0
530.07	84769320.0
530.32	84134216.0
530.57	88968710.0
530.82	84324344.0
531.07	88010110.0
531.32	87410400.0
531.57	79990104.0
531.82	87000936.0
532.07	86642350.0
532.32	79100540.0
532.57	81797850.0
532.82	60027412.0
533.07	84951790.0
533.32	71850550.0
533.57	83901470.0
533.82	79501200.0
534.07	76009350.0
534.32	87647760.0
534.57	80737630.0
534.82	81833300.0
535.07	85722640.0
535.32	84754710.0
535.57	88603570.0
535.82	88337380.0
536.07	87655090.0
536.32	86693750.0
536.57	79991144.0
536.82	82942250.0
537.07	66110680.0
537.32	86099864.0
537.57	88857310.0
537.82	84903840.0
538.07	84035610.0
538.32	78533016.0
538.57	88828910.0
538.82	84712824.0
539.07	82770776.0
539.32	83092120.0
539.57	82116050.0
539.82	75013340.0
540.07	80864160.0
540.32	76381390.0
540.57	67945690.0
540.82	83597600.0
541.07	74731320.0
541.32	83501080.0
541.57	80859270.0
541.82	84073770.0
542.07	82870880.0
542.32	80335620.0
542.57	84790350.0
542.82	85281224.0
543.07	74977400.0
543.32	78354230.0
543.57	75698480.0
543.82	87174440.0
544.07	86401640.0
544.32	86927340.0
544.57	72929830.0
544.82	82228960.0
545.07	87622450.0
545.32	84639920.0
545.57	74550540.0
545.82	86208100.0
546.07	85177096.0
546.32	77143340.0
546.57	86351544.0
546.82	85631144.0
547.07	85165256.0
547.32	81977630.0
547.57	73732990.0
547.82	80806580.0
548.07	82859864.0
548.32	85473770.0
548.57	87356770.0
548.82	75081704.0
549.07	84399630.0
549.32	79919180.0
549.57	84115020.0
549.82	80732290.0
550.07	81738630.0
550.32	83054790.0
550.57	78037150.0
550.82	85323430.0
551.07	83073880.0
551.32	76080460.0
551.57	83605010.0
551.82	85481740.0
552.07	83701150.0
552.32	84079896.0
552.57	80354296.0
552.82	75133340.0
553.07	84940824.0
553.32	82936450.0
553.57	80496560.0
553.82	85514270.0
554.07	86450430.0
554.32	84264910.0
554.57	84475176.0
554.82	85321660.0
555.07	84965240.0
555.32	82164370.0
555.57	80899096.0
555.82	83031740.0
556.07	82669430.0
556.32	77149890.0
556.57	81988930.0
556.82	81956520.0
557.07	79998264.0
557.32	76885350.0
557.57	79243530.0
557.82	83610010.0
558.07	83674824.0
558.32	79934920.0
558.57	76227620.0
558.82	73679080.0
559.07	80869790.0
559.32	77468744.0
559.57	79921430.0
559.82	75477870.0
560.07	77047130.0
560.32	77563016.0
560.57	84669600.0
560.82	84016856.0
561.07	84498696.0
561.32	84681960.0
561.57	72289576.0
561.82	81529240.0
562.07	81764710.0
562.32	82921930.0
562.57	78805320.0
562.82	82854696.0
563.07	84485820.0
563.32	82013944.0
563.57	83192296.0
563.82	81313710.0
564.07	80013930.0
564.32	80863890.0
564.57	82789016.0
564.82	82977780.0
565.07	79949520.0
565.32	82040984.0
565.57	77587750.0
565.82	72367580.0
566.07	80798100.0
566.32	77944696.0
566.57	81137500.0
566.82	80362056.0
567.07	81322370.0
567.32	84212536.0
567.57	81923270.0
567.82	81483970.0
568.07	83906940.0
568.32	76180790.0
568.57	79054536.0
568.82	80250990.0
569.07	80778056.0
569.32	82851270.0
569.57	82139390.0
569.82	81709210.0
570.07	78595770.0
570.32	80748380.0
570.57	79115144.0
570.82	72888190.0
571.07	73864720.0
571.32	81423030.0
571.57	81286800.0
571.82	81151760.0
572.07	82688744.0
572.32	83498184.0
572.57	83684260.0
572.82	81731010.0
573.07	81623450.0
573.32	83254340.0
573.57	83341096.0
573.82	82858184.0
574.07	82143500.0
574.32	81974910.0
574.57	83262840.0
574.82	77337240.0
575.07	82908824.0
575.32	74045530.0
575.57	79728680.0
575.82	82079864.0
576.07	79451680.0
576.32	78341650.0
576.57	83235460.0
576.82	82693480.0
577.07	82295170.0
577.32	80929330.0
577.57	81189576.0
577.82	82649656.0
578.07	78824400.0
578.32	78520880.0
578.57	76844744.0
578.82	80365176.0
579.07	78832440.0
579.32	80495260.0
579.57	82407370.0
579.82	80011890.0
580.07	82349420.0
580.32	80548400.0
580.57	78788120.0
580.82	79952120.0
581.07	81584856.0
581.32	81510940.0
581.57	78520160.0
581.82	82254730.0
582.07	81750296.0
582.32	81664360.0
582.57	81958810.0
582.82	81538830.0
583.07	79677224.0
583.32	81669016.0
583.57	80066650.0
583.82	80618370.0
584.07	81302820.0
584.32	81783520.0
584.57	81290620.0
584.82	79095330.0
585.07	81306550.0
585.32	76382000.0
585.57	79412810.0
585.82	74342140.0
586.07	78448670.0
586.32	77614080.0
586.57	78147450.0
586.82	78870270.0
587.07	81175660.0
587.32	80402590.0
587.57	81105480.0
587.82	80325650.0
588.07	79521496.0
588.32	78663240.0
588.57	80527096.0
588.82	77226450.0
589.07	60574904.0
589.32	76523040.0
589.57	64789016.0
589.82	77652216.0
590.07	80462090.0
590.32	78995030.0
590.57	79012650.0
590.82	80567530.0
591.07	80224400.0
591.32	75478230.0
591.57	77528930.0
591.82	79338920.0
592.07	80134550.0
592.32	78413304.0
592.57	80317064.0
592.82	77444560.0
593.07	74352744.0
593.32	79592344.0
593.57	76581656.0
593.82	79578780.0
594.07	78370940.0
594.32	78982130.0
594.57	79937464.0
594.82	75880480.0
595.07	79672170.0
595.32	76107816.0
595.57	78059110.0
595.82	79021570.0
596.07	78969770.0
596.32	79388970.0
596.57	78091784.0
596.82	79346400.0
597.07	79333220.0
597.32	79572660.0
597.57	74177850.0
597.82	77772344.0
598.07	78600810.0
598.32	77751240.0
598.57	75449380.0
598.82	76479520.0
599.07	77273320.0
599.32	78710750.0
599.57	77691384.0
599.82	77305840.0
600.07	78456104.0
600.32	75448616.0
600.57	77810500.0
600.82	72767970.0
601.07	78473390.0
601.32	74150350.0
601.57	75443030.0
601.82	78096550.0
602.07	72969360.0
602.32	74305300.0
602.57	78118710.0
602.82	74989390.0
603.07	74942590.0
603.32	78225290.0
603.57	78310000.0
603.82	78330770.0
604.07	77855336.0
604.32	78083544.0
604.57	77873496.0
604.82	78161540.0
605.07	78037780.0
605.32	76511100.0
605.57	74261430.0
605.82	77797464.0
606.07	77695190.0
606.32	76039620.0
606.57	73581100.0
606.82	77849620.0
607.07	77522830.0
607.32	77980410.0
607.57	77592050.0
607.82	74068670.0
608.07	76293020.0
608.32	75826940.0
608.57	74556170.0
608.82	76954264.0
609.07	75081110.0
609.32	74875750.0
609.57	76632776.0
609.82	76681340.0
610.07	76841590.0
610.32	67816056.0
610.57	76122720.0
610.82	73501560.0
611.07	76344984.0
611.32	75941240.0
611.57	75330480.0
611.82	76783720.0
612.07	74925050.0
612.32	70415176.0
612.57	74139384.0
612.82	75151760.0
613.07	71874520.0
613.32	76534940.0
613.57	70866780.0
613.82	68860536.0
614.07	72583920.0
614.32	74070680.0
614.57	73411290.0
614.82	73605944.0
615.07	74751250.0
615.32	74948590.0
615.57	71297496.0
615.82	71123710.0
616.07	71754710.0
616.32	66034348.0
616.57	70205976.0
616.82	73186570.0
617.07	70034960.0
617.32	73878760.0
617.57	72769430.0
617.82	75095950.0
618.07	74197496.0
618.32	75762250.0
618.57	74921096.0
618.82	73780730.0
619.07	68059370.0
619.32	75434650.0
619.57	74171490.0
619.82	75111870.0
620.07	73146216.0
620.32	75716080.0
620.57	75139704.0
620.82	74628344.0
621.07	75409336.0
621.32	71639240.0
621.57	71051280.0
621.82	72103304.0
622.07	73221020.0
622.32	74274350.0
622.57	73961656.0
622.82	74159190.0
623.07	69512950.0
623.32	72083460.0
623.57	74970520.0
623.82	69877176.0
624.07	72895750.0
624.32	69784376.0
624.57	68217864.0
624.82	72688984.0
625.07	73730056.0
625.32	65034244.0
625.57	70447910.0
625.82	70072780.0
626.07	72617120.0
626.32	74270710.0
626.57	70952700.0
626.82	72744570.0
627.07	72281820.0
627.32	73839300.0
627.57	71109770.0
627.82	69149100.0
628.07	69930660.0
628.32	70949760.0
628.57	71960330.0
628.82	73394490.0
629.07	71301420.0
629.32	70726330.0
629.57	72709460.0
629.82	71656630.0
630.07	69324990.0
630.32	70733220.0
630.57	73118110.0
630.82	73613330.0
631.07	72458860.0
631.32	73427704.0
631.57	65012376.0
631.82	67412664.0
632.07	72671600.0
632.32	70339576.0
632.57	73092490.0
632.82	72512710.0
633.07	72287176.0
633.32	72892160.0
633.57	66526090.0
633.82	71295060.0
634.07	73309440.0
634.32	70684980.0
634.57	73127336.0
634.82	71619500.0
635.07	72664490.0
635.32	72081144.0
635.57	70046900.0
635.82	70378280.0
636.07	71681624.0
636.32	69070260.0
636.57	71113896.0
636.82	72218984.0
637.07	70758580.0
637.32	72211770.0
637.57	72323810.0
637.82	71661080.0
638.07	70165240.0
638.32	72210110.0
638.57	70314390.0
638.82	72404250.0
639.07	71736750.0
639.32	67283370.0
639.57	71836984.0
639.82	71365450.0
640.07	64393080.0
640.32	72111730.0
640.57	72156490.0
640.82	67991704.0
641.07	67725240.0
641.32	70851544.0
641.57	69317600.0
641.82	70692050.0
642.07	64912188.0
642.32	71400920.0
642.57	71299010.0
642.82	71655704.0
643.07	67642770.0
643.32	70230360.0
643.57	71176610.0
643.82	65066780.0
644.07	70861790.0
644.32	70791280.0
644.57	71318340.0
644.82	71286776.0
645.07	67106024.0
645.32	71249840.0
645.57	66919996.0
645.82	70025740.0
646.07	70141340.0
646.32	63538456.0
646.57	70943340.0
646.82	68976040.0
647.07	68056730.0
647.32	70637784.0
647.57	67570880.0
647.82	70457096.0
648.07	70398110.0
648.32	68614140.0
648.57	70709416.0
648.82	70605224.0
649.07	69201320.0
649.32	65298436.0
649.57	59153890.0
649.82	67870850.0
650.07	67561340.0
650.32	67781350.0
650.57	70373100.0
650.82	69862670.0
651.07	69718250.0
651.32	69974900.0
651.57	68702830.0
651.82	68389430.0
652.07	69885010.0
652.32	69840290.0
652.57	69164630.0
652.82	69120910.0
653.07	69538580.0
653.32	68341160.0
653.57	69437970.0
653.82	67782900.0
654.07	68972030.0
654.32	68836220.0
654.57	65010480.0
654.82	67674870.0
655.07	66674508.0
655.32	66123396.0
655.57	63346790.0
655.82	62459092.0
656.07	54938590.0
656.32	40176330.0
656.57	58646960.0
656.82	63427870.0
657.07	65341710.0
657.32	65514064.0
657.57	65719036.0
657.82	67973030.0
658.07	67670310.0
658.32	68098830.0
658.57	67291736.0
658.82	68323480.0
659.07	68700000.0
659.32	62479064.0
659.57	68056920.0
659.82	68122190.0
660.07	68938776.0
660.32	68660000.0
660.57	67027456.0
660.82	66401504.0
661.07	67907820.0
661.32	68440950.0
661.57	68715980.0
661.82	68480620.0
662.07	68616200.0
662.32	67788470.0
662.57	67820610.0
662.82	68088840.0
663.07	66740520.0
663.32	63413670.0
663.57	67608970.0
663.82	68327000.0
664.07	66756060.0
664.32	66022330.0
664.57	68149976.0
664.82	67928950.0
665.07	68308920.0
665.32	67661256.0
665.57	67732990.0
665.82	68079270.0
666.07	67859040.0
666.32	64295604.0
666.57	66841656.0
666.82	67368610.0
667.07	67879064.0
667.32	67789576.0
667.57	67860410.0
667.82	63505828.0
668.07	67517680.0
668.32	67437260.0
668.57	67825736.0
668.82	67331464.0
669.07	67777496.0
669.32	67279170.0
669.57	65317930.0
669.82	65337230.0
670.07	67565740.0
670.32	66424680.0
670.57	66402730.0
670.82	66962704.0
671.07	66257650.0
671.32	64834676.0
671.57	66113884.0
671.82	64154772.0
672.07	65980250.0
672.32	66728744.0
672.57	65289984.0
672.82	67029284.0
673.07	65918880.0
673.32	66002348.0
673.57	66911668.0
673.82	66370780.0
674.07	66069036.0
674.32	65975588.0
674.57	66398844.0
674.82	66052664.0
675.07	64534060.0
675.32	65040910.0
675.57	66550730.0
675.82	66128470.0
676.07	66412056.0
676.32	66104816.0
676.57	65309764.0
676.82	64197490.0
677.07	64955030.0
677.32	64989540.0
677.57	65930340.0
677.82	65652560.0
678.07	66035124.0
678.32	65100044.0
678.57	64672150.0
678.82	65063976.0
679.07	65804172.0
679.32	65130376.0
679.57	64849996.0
679.82	64680410.0
680.07	64702560.0
680.32	65206950.0
680.57	64500490.0
680.82	65244120.0
681.07	63959344.0
681.32	64834916.0
681.57	64586044.0
681.82	65642012.0
682.07	63586960.0
682.32	65471780.0
682.57	65470476.0
682.82	63723470.0
683.07	64250320.0
683.32	65202988.0
683.57	65390628.0
683.82	63757776.0
684.07	62301640.0
684.32	62444956.0
684.57	65007428.0
684.82	64853892.0
685.07	64617290.0
685.32	65136292.0
685.57	61481108.0
685.82	63075764.0
686.07	63594536.0
686.32	64593460.0
686.57	65039692.0
686.82	64299704.0
687.07	64885092.0
687.32	63913864.0
687.57	64491456.0
687.82	64889852.0
688.07	63837520.0
688.32	62868976.0
688.57	63784316.0
688.82	63725600.0
689.07	64550244.0
689.32	64547916.0
689.57	63720616.0
689.82	63943828.0
690.07	64510028.0
690.32	64443876.0
690.57	63481070.0
690.82	64244650.0
691.07	63622156.0
691.32	63914936.0
691.57	60670036.0
691.82	63654850.0
692.07	63132624.0
692.32	63040612.0
692.57	62576244.0
692.82	63848240.0
693.07	63638068.0
693.32	62629410.0
693.57	63087750.0
693.82	63635480.0
694.07	63856184.0
694.32	63224584.0
694.57	61211460.0
694.82	62825676.0
695.07	62089676.0
695.32	63091780.0
695.57	62429340.0
695.82	63431900.0
696.07	63366690.0
696.32	63271104.0
696.57	61868576.0
696.82	63272660.0
697.07	62540784.0
697.32	63373332.0
697.57	61946476.0
697.82	58707756.0
698.07	61679380.0
698.32	63244384.0
698.57	62965370.0
698.82	62506148.0
699.07	62865908.0
699.32	62519410.0
699.57	62074356.0
699.82	61942680.0
700.07	60392180.0
700.32	61470480.0
700.57	60991090.0
700.82	61838080.0
701.07	61241316.0
701.32	60897910.0
701.57	59291044.0
701.82	61120216.0
702.07	62618056.0
702.32	58728990.0
702.57	60875180.0
702.82	60442430.0
703.07	61639764.0
703.32	62224336.0
703.57	61127680.0
703.82	59346530.0
704.07	62325468.0
704.32	62391196.0
704.57	61567090.0
704.82	62317936.0
705.07	62256524.0
705.32	60302630.0
705.57	61472416.0
705.82	61915090.0
706.07	60607468.0
706.32	61452892.0
706.57	61796990.0
706.82	59134390.0
707.07	60846630.0
707.32	61103820.0
707.57	61775090.0
707.82	61805560.0
708.07	61345468.0
708.32	60405960.0
708.57	58497856.0
708.82	61611296.0
709.07	59498040.0
709.32	61170550.0
709.57	61031148.0
709.82	60887340.0
710.07	61077016.0
710.32	61337644.0
710.57	60990950.0
710.82	59618044.0
711.07	59901690.0
711.32	59018696.0
711.57	59724780.0
711.82	60300936.0
712.07	60265012.0
712.32	58261160.0
712.57	60854244.0
712.82	59167916.0
713.07	58444140.0
713.32	58700692.0
713.57	60779256.0
713.82	60723630.0
714.07	60733990.0
714.32	59518670.0
714.57	59865012.0
714.82	55770576.0
715.07	60314684.0
715.32	60470090.0
715.57	59510364.0
715.82	60247030.0
716.07	60160796.0
716.32	58393644.0
716.57	55860010.0
716.82	60493270.0
717.07	60333610.0
717.32	60392356.0
717.57	58573516.0
717.82	60265240.0
718.07	56590660.0
718.32	59383910.0
718.57	58618490.0
718.82	54427720.0
719.07	58332916.0
719.32	57000580.0
719.57	59440870.0
719.82	58856456.0
720.07	59893950.0
720.32	57967372.0
720.57	59759580.0
720.82	53635784.0
721.07	59539860.0
721.32	58842468.0
721.57	58931750.0
721.82	59410508.0
722.07	58060456.0
722.32	56831428.0
722.57	58378064.0
722.82	58737304.0
723.07	59606180.0
723.32	59633680.0
723.57	58337144.0
723.82	59120276.0
724.07	58826040.0
724.32	59335660.0
724.57	57380468.0
724.82	59372732.0
725.07	56750056.0
725.32	58865220.0
725.57	58852344.0
725.82	58819596.0
726.07	56310744.0
726.32	58846268.0
726.57	58795028.0
726.82	59023790.0
727.07	58883450.0
727.32	58090732.0
727.57	57584116.0
727.82	58021084.0
728.07	58832200.0
728.32	56946172.0
728.57	56807976.0
728.82	54089500.0
729.07	56001892.0
729.32	56435336.0
729.57	57646796.0
729.82	57710876.0
730.07	57860620.0
730.32	57871100.0
730.57	57440490.0
730.82	56079404.0
731.07	56174780.0
731.32	58368876.0
731.57	58418356.0
731.82	57930030.0
732.07	56786010.0
732.32	58297040.0
732.57	54639124.0
732.82	57179716.0
733.07	57215160.0
733.32	57462790.0
733.57	57887140.0
733.82	58131630.0
734.07	57611570.0
734.32	58086930.0
734.57	57410892.0
734.82	57924908.0
735.07	56666436.0
735.32	57636160.0
735.57	55637440.0
735.82	57477696.0
736.07	56981184.0
736.32	55270000.0
736.57	57372396.0
736.82	57464916.0
737.07	57503828.0
737.32	57189544.0
737.57	57015580.0
737.82	57839360.0
738.07	57066044.0
738.32	56817596.0
738.57	54327076.0
738.82	52467772.0
739.07	56765804.0
739.32	55742040.0
739.57	57051828.0
739.82	57076100.0
740.07	53841064.0
740.32	57448600.0
740.57	55184500.0
740.82	53808252.0
741.07	54575212.0
741.32	56867830.0
741.57	52788344.0
741.82	54895060.0
742.07	56269300.0
742.32	51857856.0
742.57	56178216.0
742.82	56641870.0
743.07	55830450.0
743.32	56281684.0
743.57	56149060.0
743.82	56883550.0
744.07	55265200.0
744.32	55292770.0
744.57	53302108.0
744.82	55298150.0
745.07	56080370.0
745.32	55570052.0
745.57	56581236.0
745.82	56418596.0
746.07	56026116.0
746.32	53686600.0
746.57	56250656.0
746.82	56330820.0
747.07	56315510.0
747.32	55017604.0
747.57	55630864.0
747.82	56174504.0
748.07	54855616.0
748.32	54912210.0
748.57	56234428.0
748.82	55947744.0
749.07	54266964.0
749.32	55578450.0
749.57	52429324.0
749.82	55454730.0
750.07	55705470.0
750.32	55667308.0
750.57	55297964.0
750.82	55266228.0
751.07	51848500.0
751.32	54718620.0
751.57	55359080.0
751.82	55780980.0
752.07	55856110.0
752.32	53569304.0
752.57	53632956.0
752.82	55698876.0
753.07	54226212.0
753.32	55532980.0
753.57	55589544.0
753.82	55231720.0
754.07	55346270.0
754.32	55298520.0
754.57	55429290.0
754.82	54328824.0
755.07	55373924.0
755.32	54537630.0
755.57	53078800.0
755.82	55059564.0
756.07	53152280.0
756.32	55075416.0
756.57	55101724.0
756.82	53323804.0
757.07	55107332.0
757.32	53592460.0
757.57	54995500.0
757.82	54567964.0
758.07	54972732.0
758.32	52782030.0
758.57	52824652.0
758.82	54499376.0
759.07	54634270.0
759.32	54613890.0
759.57	54415880.0
759.82	54420310.0
760.07	54008308.0
760.32	53420468.0
760.57	53930860.0
760.82	54764212.0
761.07	53851676.0
761.32	54683130.0
761.57	53288140.0
761.82	49539536.0
762.07	53210996.0
762.32	54380300.0
762.57	54458590.0
762.82	54412532.0
763.07	54240850.0
763.32	54320204.0
763.57	54343796.0
763.82	54284404.0
764.07	53884780.0
764.32	54185588.0
764.57	54261640.0
764.82	53938470.0
765.07	54129416.0
765.32	53284420.0
765.57	52474320.0
765.82	49062508.0
766.07	50835720.0
766.32	51126030.0
766.57	50036330.0
766.82	53265810.0
767.07	53352732.0
767.32	53684010.0
767.57	53843910.0
767.82	53681656.0
768.07	52207676.0
768.32	53722708.0
768.57	53491000.0
768.82	53053492.0
769.07	51138596.0
769.32	53409708.0
769.57	53247476.0
769.82	50569124.0
770.07	53413776.0
770.32	53417320.0
770.57	53371148.0
770.82	52887332.0
771.07	50166188.0
771.32	51461828.0
771.57	53295840.0
771.82	53027636.0
772.07	52944250.0
772.32	50197744.0
772.57	52983720.0
772.82	51316212.0
773.07	53096910.0
773.32	52884868.0
773.57	53014090.0
773.82	53024396.0
774.07	52930864.0
774.32	51457876.0
774.57	50302996.0
774.82	48580900.0
775.07	51981464.0
775.32	52784240.0
775.57	52588520.0
775.82	52319864.0
776.07	52537460.0
776.32	52820496.0
776.57	52588840.0
776.82	52745150.0
777.07	51831370.0
777.32	50737584.0
777.57	51562800.0
777.82	52563596.0
778.07	49929484.0
778.32	52531630.0
778.57	52481310.0
778.82	50818868.0
779.07	52379940.0
779.32	52307400.0
779.57	52397292.0
779.82	49940976.0
780.07	51709456.0
780.32	52183204.0
780.57	52177040.0
780.82	51314740.0
781.07	50347572.0
781.32	52087280.0
781.57	51918210.0
781.82	52131510.0
782.07	51569370.0
782.32	52057092.0
782.57	50766410.0
782.82	52004144.0
783.07	51799904.0
783.32	48574748.0
783.57	49499028.0
783.82	51742028.0
784.07	51348332.0
784.32	51575724.0
784.57	51458084.0
784.82	51475212.0
785.07	49803190.0
785.32	51486680.0
785.57	51024944.0
785.82	51634950.0
786.07	50984956.0
786.32	51357268.0
786.57	51355484.0
786.82	51452068.0
787.07	51229800.0
787.32	51220090.0
787.57	51147012.0
787.82	50615670.0
788.07	50074276.0
788.32	51091716.0
788.57	51160104.0
788.82	50951896.0
789.07	50949450.0
789.32	50855692.0
789.57	50121160.0
789.82	50691864.0
790.07	49930340.0
790.32	50635716.0
790.57	50552664.0
790.82	50611572.0
791.07	50480548.0
791.32	48587892.0
791.57	50403940.0
791.82	48091856.0
792.07	50659964.0
792.32	50101076.0
792.57	50212880.0
792.82	50412510.0
793.07	48574624.0
793.32	48244160.0
793.57	50403776.0
793.82	47141372.0
794.07	49301732.0
794.32	48021268.0
794.57	47070280.0
794.82	49932560.0
795.07	49968836.0
795.32	50134004.0
795.57	49538150.0
795.82	49794988.0
796.07	50073588.0
796.32	50038780.0
796.57	50106190.0
796.82	50073084.0
797.07	49643428.0
797.32	49972420.0
797.57	49488540.0
797.82	49549656.0
798.07	49884196.0
798.32	50105720.0
798.57	49820630.0
798.82	49342436.0
799.07	49969144.0
799.32	49761436.0
799.57	49053740.0
799.82	46897200.0
800.07	49645324.0
800.32	48966710.0
800.57	49657304.0
800.82	49071052.0
801.07	49574540.0
801.32	49493010.0
801.57	49575540.0
801.82	49526076.0
802.07	49294908.0
802.32	49536324.0
802.57	48602490.0
802.82	47215348.0
803.07	49429840.0
803.32	49459570.0
803.57	47811092.0
803.82	49394504.0
804.07	49208564.0
804.32	48866880.0
804.57	46523720.0
804.82	47371304.0
805.07	48423500.0
805.32	48110996.0
805.57	48934220.0
805.82	48840424.0
806.07	49009612.0
806.32	48873972.0
806.57	49102476.0
806.82	48750050.0
807.07	47631010.0
807.32	47862810.0
807.57	47776340.0
807.82	48831776.0
808.07	48199110.0
808.32	48509520.0
808.57	46377780.0
808.82	48335976.0
809.07	48251492.0
809.32	46689764.0
809.57	47717150.0
809.82	46423070.0
810.07	48509516.0
810.32	48372050.0
810.57	48175332.0
810.82	48325296.0
811.07	48281692.0
811.32	48239840.0
811.57	47782936.0
811.82	48386176.0
812.07	48223320.0
812.32	48440170.0
812.57	47980070.0
812.82	48225944.0
813.07	47959660.0
813.32	48238576.0
813.57	48053510.0
813.82	47974972.0
814.07	47829830.0
814.32	47767540.0
814.57	48007052.0
814.82	47532972.0
815.07	46969764.0
815.32	47848450.0
815.57	47645340.0
815.82	47741930.0
816.07	47666864.0
816.32	46774744.0
816.57	47670910.0
816.82	47596056.0
817.07	47594336.0
817.32	47525276.0
817.57	47681744.0
817.82	47057656.0
818.07	47483210.0
818.32	43577052.0
818.57	46787664.0
818.82	47333776.0
819.07	47670396.0
819.32	46709544.0
819.57	42396736.0
819.82	45780716.0
820.07	46418676.0
820.32	47191496.0
820.57	46715548.0
820.82	45985436.0
821.07	46292290.0
821.32	44181444.0
821.57	46585344.0
821.82	47305604.0
822.07	43428216.0
822.32	47115224.0
822.57	47327180.0
822.82	47007668.0
823.07	45178228.0
823.32	45705910.0
823.57	46567680.0
823.82	45591670.0
824.07	47142110.0
824.32	46875212.0
824.57	47110700.0
824.82	44547268.0
825.07	46448052.0
825.32	46958956.0
825.57	46376480.0
825.82	46744144.0
826.07	46777044.0
826.32	46473916.0
826.57	46585864.0
826.82	46636610.0
827.07	46422296.0
827.32	46347810.0
827.57	46171316.0
827.82	46477948.0
828.07	46596500.0
828.32	46586156.0
828.57	46508900.0
828.82	45883164.0
829.07	46537430.0
829.32	45131788.0
829.57	45766320.0
829.82	46048360.0
830.07	46071616.0
830.32	45903296.0
830.57	44052292.0
830.82	45935250.0
831.07	44681860.0
831.32	46005190.0
831.57	46277668.0
831.82	44947804.0
832.07	45860744.0
832.32	46010620.0
832.57	45236532.0
832.82	42660572.0
833.07	44606132.0
833.32	45031730.0
833.57	44088028.0
833.82	44468276.0
834.07	45799880.0
834.32	45222572.0
834.57	43361760.0
834.82	45069692.0
835.07	45865324.0
835.32	45447812.0
835.57	45727356.0
835.82	45287170.0
836.07	45344740.0
836.32	45103276.0
836.57	44262948.0
836.82	45680620.0
837.07	45376404.0
837.32	45208012.0
837.57	45495732.0
837.82	44842730.0
838.07	45664904.0
838.32	44253450.0
838.57	45202440.0
838.82	41202270.0
839.07	45150810.0
839.32	45383576.0
839.57	45059450.0
839.82	44725644.0
840.07	44032668.0
840.32	44935988.0
840.57	45239868.0
840.82	45175824.0
841.07	45171920.0
841.32	44223410.0
841.57	45175660.0
841.82	43375860.0
842.07	44793200.0
842.32	43888332.0
842.57	43801284.0
842.82	44964052.0
843.07	45001660.0
843.32	44347144.0
843.57	42029890.0
843.82	44522130.0
844.07	43194950.0
844.32	44301210.0
844.57	42973824.0
844.82	44814908.0
845.07	44454956.0
845.32	44726600.0
845.57	44593600.0
845.82	44293844.0
846.07	44527240.0
846.32	44363484.0
846.57	44007308.0
846.82	40941100.0
847.07	43593376.0
847.32	44315144.0
847.57	44421930.0
847.82	44049964.0
848.07	43958996.0
848.32	44042650.0
848.57	44129908.0
848.82	44124148.0
849.07	44167524.0
849.32	43389250.0
849.57	41081788.0
849.82	29286512.0
850.07	41513110.0
850.32	42625536.0
850.57	43314740.0
850.82	43891564.0
851.07	43832850.0
851.32	41061464.0
851.57	41914916.0
851.82	43265350.0
852.07	43856680.0
852.32	43859370.0
852.57	42493120.0
852.82	42206308.0
853.07	43068740.0
853.32	42587356.0
853.57	40876452.0
853.82	38425824.0
854.07	29255474.0
854.32	26183888.0
854.57	37630820.0
854.82	40778676.0
855.07	42106804.0
855.32	42858130.0
855.57	41623020.0
855.82	43280892.0
856.07	43283012.0
856.32	43146772.0
856.57	43242700.0
856.82	43180012.0
857.07	43220976.0
857.32	43387384.0
857.57	43087356.0
857.82	43514416.0
858.07	43535050.0
858.32	41482892.0
858.57	43080320.0
858.82	43017972.0
859.07	43027212.0
859.32	42425252.0
859.57	42056104.0
859.82	41234564.0
860.07	42548616.0
860.32	41856428.0
860.57	42468230.0
860.82	42882764.0
861.07	40762410.0
861.32	42754350.0
861.57	42297324.0
861.82	42985300.0
862.07	41645430.0
862.32	43186964.0
862.57	42459504.0
862.82	43074836.0
863.07	42700948.0
863.32	42707070.0
863.57	42428250.0
863.82	41894852.0
864.07	42846910.0
864.32	41692590.0
864.57	42495804.0
864.82	40700410.0
865.07	42342370.0
865.32	41765116.0
865.57	41177092.0
865.82	38534060.0
866.07	29443476.0
866.32	25997466.0
866.57	37570436.0
866.82	40239212.0
867.07	40977860.0
867.32	41078452.0
867.57	39353336.0
867.82	42270330.0
868.07	39836750.0
868.32	41941300.0
868.57	41817330.0
868.82	37358356.0
869.07	41505550.0
869.32	41413896.0
869.57	42101144.0
869.82	40248972.0
870.07	41735420.0
870.32	41875644.0
870.57	42301064.0
870.82	42299410.0
871.07	40015076.0
871.32	40392628.0
871.57	42276324.0
871.82	40777868.0
872.07	41875384.0
872.32	42195070.0
872.57	42208636.0
872.82	40605244.0
873.07	42123080.0
873.32	42065116.0
873.57	37884180.0
873.82	41700676.0
874.07	41440976.0
874.32	40192900.0
874.57	41229584.0
874.82	40324820.0
875.07	39318580.0
875.32	39488570.0
875.57	41189100.0
875.82	39391156.0
876.07	41560216.0
876.32	39992412.0
876.57	41269244.0
876.82	41614060.0
877.07	41587828.0
877.32	38779068.0
877.57	41102756.0
877.82	41642556.0
878.07	41710548.0
878.32	41586268.0
878.57	41426572.0
878.82	41185412.0
879.07	40018824.0
879.32	39599704.0
879.57	41293988.0
879.82	41577464.0
880.07	41551616.0
880.32	41392252.0
880.57	34446750.0
880.82	38274130.0
881.07	41256052.0
881.32	41342576.0
881.57	41323696.0
881.82	41156116.0
882.07	40672124.0
882.32	37756010.0
882.57	41112190.0
882.82	41143880.0
883.07	41329864.0
883.32	40629380.0
883.57	40571300.0
883.82	38926544.0
884.07	40001240.0
884.32	40829324.0
884.57	39963344.0
884.82	40828230.0
885.07	40560060.0
885.32	40638150.0
885.57	40433384.0
885.82	39983160.0
886.07	39107970.0
886.32	36968210.0
886.57	38261804.0
886.82	38850984.0
887.07	40377530.0
887.32	40338216.0
887.57	39956988.0
887.82	39786868.0
888.07	40543230.0
888.32	40059156.0
888.57	40761144.0
888.82	40744540.0
889.07	40529156.0
889.32	39593012.0
889.57	40613276.0
889.82	40243252.0
890.07	40757076.0
890.32	40561804.0
890.57	40578050.0
890.82	40307620.0
891.07	40515870.0
891.32	39312932.0
891.57	40537810.0
891.82	40418056.0
892.07	39211464.0
892.32	39324170.0
892.57	39976960.0
892.82	37762388.0
893.07	40007690.0
893.32	40268788.0
893.57	40441600.0
893.82	40363910.0
894.07	40285292.0
894.32	39854860.0
894.57	38766230.0
894.82	38975876.0
895.07	40187076.0
895.32	40251424.0
895.57	39853710.0
895.82	40190260.0
896.07	39902800.0
896.32	39714404.0
896.57	39530056.0
896.82	38953676.0
897.07	40068970.0
897.32	39597180.0
897.57	38663900.0
897.82	39481224.0
898.07	39580060.0
898.32	39715144.0
898.57	39356940.0
898.82	39262776.0
899.07	39473772.0
899.32	39598800.0
899.57	39287828.0
899.82	38674532.0
900.07	36912790.0
900.32	39292470.0
900.57	38904170.0
900.82	37535028.0
901.07	37101024.0
901.32	35417144.0
901.57	35997908.0
901.82	37286740.0
902.07	37244452.0
902.32	38116788.0
902.57	39093692.0
902.82	39033790.0
903.07	39137828.0
903.32	39336760.0
903.57	39028756.0
903.82	39235816.0
904.07	39386150.0
904.32	39297236.0
904.57	39328772.0
904.82	39284140.0
905.07	38810796.0
905.32	38918452.0
905.57	39262604.0
905.82	38834370.0
906.07	36956384.0
906.32	36715708.0
906.57	39146860.0
906.82	38902572.0
907.07	38764292.0
907.32	39012056.0
907.57	38965430.0
907.82	37179980.0
908.07	37554876.0
908.32	38868756.0
908.57	38938830.0
908.82	34374564.0
909.07	38422932.0
909.32	37789284.0
909.57	36012124.0
909.82	37880584.0
910.07	38353228.0
910.32	37875820.0
910.57	38072100.0
910.82	38546764.0
911.07	36997760.0
911.32	37602190.0
911.57	38607476.0
911.82	37575444.0
912.07	38669840.0
912.32	38027772.0
912.57	38581636.0
912.82	38697780.0
913.07	38491468.0
913.32	38495856.0
913.57	38342204.0
913.82	38591320.0
914.07	38019692.0
914.32	38283516.0
914.57	38002668.0
914.82	37255636.0
915.07	38203240.0
915.32	38226430.0
915.57	38128630.0
915.82	38226820.0
916.07	38177804.0
916.32	37867670.0
916.57	37785892.0
916.82	37711628.0
917.07	37798236.0
917.32	36946228.0
917.57	37803508.0
917.82	37747844.0
918.07	37662380.0
918.32	37849584.0
918.57	37653304.0
918.82	37643536.0
919.07	37735948.0
919.32	37596256.0
919.57	37756096.0
919.82	37245104.0
920.07	37492144.0
920.32	37566140.0
920.57	37020668.0
920.82	37100370.0
921.07	36165624.0
921.32	34866076.0
921.57	37013444.0
921.82	34809004.0
922.07	36941260.0
922.32	36481140.0
922.57	35473230.0
922.82	32166238.0
923.07	34225760.0
923.32	36052428.0
923.57	36431220.0
923.82	35004716.0
924.07	36964616.0
924.32	35872612.0
924.57	36176596.0
924.82	36701276.0
925.07	37339710.0
925.32	36370344.0
925.57	33715284.0
925.82	35122228.0
926.07	36943410.0
926.32	36057650.0
926.57	36856180.0
926.82	37062900.0
927.07	36723870.0
927.32	37158812.0
927.57	37315572.0
927.82	36920830.0
928.07	36350810.0
928.32	37281200.0
928.57	37104760.0
928.82	36269690.0
929.07	35947284.0
929.32	36747820.0
929.57	36288132.0
929.82	36802396.0
930.07	36706000.0
930.32	36928940.0
930.57	36528400.0
930.82	36790052.0
931.07	36521424.0
931.32	36982836.0
931.57	36758484.0
931.82	35807676.0
932.07	36851720.0
932.32	36391104.0
932.57	36441060.0
932.82	36145388.0
933.07	36967590.0
933.32	36361320.0
933.57	36440560.0
933.82	36678124.0
934.07	36759420.0
934.32	36609024.0
934.57	36177136.0
934.82	36643784.0
935.07	35710030.0
935.32	36661308.0
935.57	35985664.0
935.82	35760340.0
936.07	36343436.0
936.32	35742956.0
936.57	36014900.0
936.82	36045700.0
937.07	36227250.0
937.32	36208824.0
937.57	36234692.0
937.82	36386084.0
938.07	35886176.0
938.32	36066990.0
938.57	36135536.0
938.82	35982828.0
939.07	36008584.0
939.32	35659340.0
939.57	35221236.0
939.82	35868960.0
940.07	35490024.0
940.32	35875060.0
940.57	33038034.0
940.82	35855264.0
941.07	35223270.0
941.32	32530148.0
941.57	32616876.0
941.82	35687216.0
942.07	34556096.0
942.32	35809304.0
942.57	35664584.0
942.82	35897236.0
943.07	34774052.0
943.32	34317600.0
943.57	35727140.0
943.82	33088678.0
944.07	35733070.0
944.32	35114364.0
944.57	35098516.0
944.82	34883788.0
945.07	35783428.0
945.32	35093376.0
945.57	35325490.0
945.82	35209696.0
946.07	35863150.0
946.32	34972576.0
946.57	35547628.0
946.82	35653772.0
947.07	35394370.0
947.32	35566132.0
947.57	35717340.0
947.82	35254804.0
948.07	34964740.0
948.32	35603730.0
948.57	34934748.0
948.82	35163796.0
949.07	35608732.0
949.32	35254320.0
949.57	35111080.0
949.82	35486740.0
950.07	35118016.0
950.32	34988290.0
950.57	34676748.0
950.82	35203028.0
951.07	34930060.0
951.32	34840988.0
951.57	35355264.0
951.82	35100590.0
952.07	34580036.0
952.32	35079692.0
952.57	34680388.0
952.82	34758228.0
953.07	34451780.0
953.32	34918364.0
953.57	33731636.0
953.82	34410636.0
954.07	33704580.0
954.32	32643172.0
954.57	29553710.0
954.82	32361964.0
955.07	33514830.0
955.32	33774070.0
955.57	33958776.0
955.82	34021000.0
956.07	34433756.0
956.32	34486310.0
956.57	34545664.0
956.82	34778400.0
957.07	33539372.0
957.32	34062200.0
957.57	34222388.0
957.82	34638892.0
958.07	34744120.0
958.32	34620690.0
958.57	34320500.0
958.82	34203496.0
959.07	34914070.0
959.32	34502852.0
959.57	34151540.0
959.82	34483264.0
960.07	34239212.0
960.32	32985314.0
960.57	33578504.0
960.82	33801550.0
961.07	34662510.0
961.32	34667156.0
961.57	34470720.0
961.82	34442264.0
962.07	32757862.0
962.32	34324092.0
962.57	32693416.0
962.82	34480320.0
963.07	34495860.0
963.32	33493000.0
963.57	34271716.0
963.82	32470026.0
964.07	34391384.0
964.32	34252010.0
964.57	34143490.0
964.82	33735852.0
965.07	33927460.0
965.32	33318640.0
965.57	34017350.0
965.82	31407328.0
966.07	33404314.0
966.32	33936770.0
966.57	34175770.0
966.82	34194144.0
967.07	33719548.0
967.32	33772536.0
967.57	32730948.0
967.82	34106470.0
968.07	33721736.0
968.32	34001590.0
968.57	34042268.0
968.82	33100798.0
969.07	33379384.0
969.32	33782100.0
969.57	33932020.0
969.82	33936590.0
970.07	33676090.0
970.32	33823960.0
970.57	33001670.0
970.82	33964936.0
971.07	33915824.0
971.32	33864650.0
971.57	33677372.0
971.82	33650676.0
972.07	33816236.0
972.32	33637092.0
972.57	33642656.0
972.82	33019136.0
973.07	33458794.0
973.32	33799660.0
973.57	33062196.0
973.82	31936110.0
974.07	33709110.0
974.32	32824594.0
974.57	33008058.0
974.82	33027718.0
975.07	33553756.0
975.32	32810094.0
975.57	33594544.0
975.82	33226338.0
976.07	33509788.0
976.32	32319488.0
976.57	33490294.0
976.82	33111772.0
977.07	32838876.0
977.32	33421348.0
977.57	33455092.0
977.82	33366468.0
978.07	33240608.0
978.32	32485852.0
978.57	32782994.0
978.82	32463710.0
979.07	33258568.0
979.32	32964488.0
979.57	33188726.0
979.82	33188144.0
980.07	32264958.0
980.32	33301514.0
980.57	33256784.0
980.82	33010942.0
981.07	33062306.0
981.32	32917570.0
981.57	33047796.0
981.82	33139230.0
982.07	32542090.0
982.32	33061710.0
982.57	32846760.0
982.82	32914836.0
983.07	32941740.0
983.32	32364136.0
983.57	32754678.0
983.82	32736668.0
984.07	32869320.0
984.32	32582466.0
984.57	32742420.0
984.82	32479674.0
985.07	32686456.0
985.32	32811656.0
985.57	32454362.0
985.82	32801900.0
986.07	31906254.0
986.32	32832552.0
986.57	32838558.0
986.82	32603622.0
987.07	32555322.0
987.32	32390538.0
987.57	32816112.0
987.82	32783022.0
988.07	32346214.0
988.32	32416520.0
988.57	32619014.0
988.82	31470020.0
989.07	31454240.0
989.32	32245524.0
989.57	32618120.0
989.82	31695016.0
990.07	32125714.0
990.32	32385728.0
990.57	31879098.0
990.82	32394882.0
991.07	32341142.0
991.32	31873088.0
991.57	32299460.0
991.82	32564474.0
992.07	32192262.0
992.32	32256956.0
992.57	32373956.0
992.82	32031446.0
993.07	31850766.0
993.32	32172438.0
993.57	32354302.0
993.82	32155836.0
994.07	31154382.0
994.32	31828942.0
994.57	32260886.0
994.82	32033578.0
995.07	31849572.0
995.32	32074186.0
995.57	31853776.0
995.82	32121192.0
996.07	31951946.0
996.32	32012370.0
996.57	32058740.0
996.82	31845066.0
997.07	31464768.0
997.32	31689440.0
997.57	31924288.0
997.82	31941924.0
998.07	31877520.0
998.32	31934730.0
998.57	31438938.0
998.82	32011082.0
999.07	31854400.0
999.32	31360038.0
999.57	31949264.0
999.82	31537312.0
1000.07	31666042.0
1000.32	31806450.0
1000.57	31472030.0
1000.82	31145456.0
1001.07	31300882.0
1001.32	31849766.0
1001.57	31767006.0
1001.82	31733548.0
1002.07	31575172.0
1002.32	31694664.0
1002.57	31194474.0
1002.82	31452108.0
1003.07	31248012.0
1003.32	31335674.0
1003.57	30495796.0
1003.82	31047244.0
1004.07	30900692.0
1004.32	30595208.0
1004.57	29811776.0
1004.82	26923490.0
1005.07	27433290.0
1005.32	29884208.0
1005.57	30389604.0
1005.82	30479760.0
1006.07	30639274.0
1006.32	30708622.0
1006.57	29911708.0
1006.82	30840284.0
1007.07	31324756.0
1007.32	31234052.0
1007.57	30864672.0
1007.82	31200160.0
1008.07	31231970.0
1008.32	31073258.0
1008.57	30951500.0
1008.82	31191174.0
1009.07	31092328.0
1009.32	30986260.0
1009.57	31243334.0
1009.82	30698942.0
1010.07	30750656.0
1010.32	30467888.0
1010.57	30389844.0
1010.82	31181156.0
1011.07	31141700.0
1011.32	30930886.0
1011.57	31049196.0
1011.82	31062230.0
1012.07	30858536.0
1012.32	29974236.0
1012.57	30897282.0
1012.82	31048152.0
1013.07	31007104.0
1013.32	30981662.0
1013.57	30853784.0
1013.82	30844136.0
1014.07	30972298.0
1014.32	30791170.0
1014.57	29048806.0
1014.82	30540442.0
1015.07	30770654.0
1015.32	30614258.0
1015.57	30275124.0
1015.82	30829196.0
1016.07	30187540.0
1016.32	29431698.0
1016.57	30827090.0
1016.82	30515600.0
1017.07	30632748.0
1017.32	30545508.0
1017.57	30780746.0
1017.82	30541784.0
1018.07	30605760.0
1018.32	29094488.0
1018.57	29960034.0
1018.82	30397888.0
1019.07	30616240.0
1019.32	29356160.0
1019.57	30419626.0
1019.82	30077200.0
1020.07	30548108.0
1020.32	30222128.0
1020.57	30489974.0
1020.82	30126548.0
1021.07	30433834.0
1021.32	29558674.0
1021.57	28968676.0
1021.82	29668620.0
1022.07	30384984.0
1022.32	30156480.0
1022.57	30119512.0
1022.82	30171216.0
1023.07	30365842.0
1023.32	30234182.0
1023.57	30078794.0
1023.82	29853414.0
1024.0701	30257944.0
1024.3201	30240618.0
1024.5701	29868786.0
1024.8201	30283406.0
1025.0701	30329990.0
1025.3201	30218160.0
1025.5701	30283620.0
1025.8201	30176886.0
1026.0701	30068130.0
1026.3201	30175108.0
1026.5701	30038344.0
1026.8201	30197834.0
1027.0701	29632834.0
1027.3201	30058850.0
1027.5701	30169822.0
1027.8201	30101844.0
1028.0701	30131078.0
1028.3201	29566446.0
1028.5701	30126870.0
1028.8201	28324204.0
1029.0701	30029942.0
1029.3201	30023030.0
1029.5701	29934186.0
1029.8201	29683720.0
1030.0701	29800360.0
1030.3201	29600768.0
1030.5701	29953068.0
1030.8201	29780162.0
1031.0701	29957734.0
1031.3201	29274100.0
1031.5701	29884810.0
1031.8201	29852972.0
1032.0701	29691046.0
1032.3201	29790714.0
1032.5701	29746404.0
1032.8201	28214664.0
1033.0701	28698868.0
1033.3201	29461634.0
1033.5701	29272022.0
1033.8201	29770794.0
1034.0701	28813870.0
1034.3201	28134614.0
1034.5701	29474796.0
1034.8201	29222246.0
1035.0701	29683588.0
1035.3201	29274908.0
1035.5701	29403852.0
1035.8201	29462330.0
1036.0701	29546652.0
1036.3201	29362414.0
1036.5701	29523860.0
1036.8201	29577882.0
1037.0701	27237064.0
1037.3201	28874352.0
1037.5701	29223600.0
1037.8201	28732634.0
1038.0701	29514196.0
1038.3201	29449598.0
1038.5701	29497178.0
1038.8201	29296920.0
1039.0701	29321284.0
1039.3201	29360658.0
1039.5701	28017892.0
1039.8201	29180376.0
1040.0701	29380978.0
1040.3201	29199070.0
1040.5701	28979106.0
1040.8201	28814956.0
1041.0701	29260090.0
1041.3201	29250396.0
1041.5701	29033206.0
1041.8201	29241980.0
1042.0701	29259238.0
1042.3201	28340360.0
1042.5701	28304952.0
1042.8201	29126298.0
1043.0701	29157506.0
1043.3201	29029892.0
1043.5701	28812676.0
1043.8201	29102056.0
1044.0701	29057330.0
1044.3201	29073154.0
1044.5701	29094400.0
1044.8201	28478204.0
1045.0701	28972374.0
1045.3201	28957922.0
1045.5701	26665638.0
1045.8201	28060714.0
1046.0701	28183964.0
1046.3201	28968400.0
1046.5701	28891128.0
1046.8201	28302734.0
1047.0701	27563790.0
1047.3201	28864250.0
1047.5701	28768678.0
1047.8201	28478196.0
1048.0701	28278726.0
1048.3201	28741062.0
1048.5701	28477270.0
1048.8201	28802210.0
1049.0701	28764424.0
1049.3201	28832148.0
1049.5701	28497708.0
1049.8201	28787034.0
1050.0701	28285892.0
1050.3201	28478302.0
1050.5701	28418666.0
1050.8201	28581612.0
1051.0701	28311278.0
1051.3201	28481012.0
1051.5701	28674900.0
1051.8201	27968534.0
1052.0701	28463126.0
1052.3201	28557358.0
1052.5701	28537690.0
1052.8201	28579122.0
1053.0701	28000120.0
1053.3201	27619442.0
1053.5701	28527110.0
1053.8201	28434136.0
1054.0701	28223578.0
1054.3201	28547790.0
1054.5701	28441868.0
1054.8201	28493102.0
1055.0701	28310530.0
1055.3201	28173764.0
1055.5701	28373770.0
1055.8201	28230942.0
1056.0701	28380816.0
1056.3201	28415144.0
1056.5701	28209698.0
1056.8201	28072414.0
1057.0701	27995596.0
1057.3201	27637462.0
1057.5701	28037528.0
1057.8201	27943776.0
1058.0701	27828734.0
1058.3201	27608888.0
1058.5701	24536006.0
1058.8201	26758434.0
1059.0701	28121470.0
1059.3201	28008818.0
1059.5701	27797394.0
1059.8201	28165680.0
1060.0701	28156132.0
1060.3201	25658924.0
1060.5701	27448634.0
1060.8201	28071118.0
1061.0701	28006322.0
1061.3201	28057954.0
1061.5701	27921038.0
1061.8201	27972004.0
1062.0701	27686246.0
1062.3201	27995998.0
1062.5701	27517302.0
1062.8201	26195186.0
1063.0701	27615476.0
1063.3201	27656682.0
1063.5701	27928350.0
1063.8201	27932562.0
1064.0701	27935422.0
1064.3201	27870818.0
1064.5701	27913504.0
1064.8201	27779722.0
1065.0701	27839300.0
1065.3201	27831990.0
1065.5701	27854070.0
1065.8201	27775120.0
1066.0701	25178924.0
1066.3201	27751134.0
1066.5701	27546012.0
1066.8201	27539216.0
1067.0701	27693640.0
1067.3201	27379782.0
1067.5701	27603426.0
1067.8201	27618212.0
1068.0701	27501104.0
1068.3201	25156058.0
1068.5701	25729608.0
1068.8201	27233366.0
1069.0701	23337612.0
1069.3201	25688086.0
1069.5701	27387638.0
1069.8201	27276140.0
1070.0701	26519562.0
1070.3201	26925146.0
1070.5701	26456322.0
1070.8201	25725282.0
1071.0701	27406754.0
1071.3201	27510060.0
1071.5701	27125168.0
1071.8201	26226716.0
1072.0701	27386758.0
1072.3201	27456782.0
1072.5701	26889176.0
1072.8201	25094694.0
1073.0701	25603016.0
1073.3201	27217086.0
1073.5701	27393300.0
1073.8201	27388614.0
1074.0701	26945098.0
1074.3201	27243388.0
1074.5701	26598432.0
1074.8201	25530074.0
1075.0701	26547666.0
1075.3201	26163436.0
1075.5701	27190186.0
1075.8201	27258744.0
1076.0701	27229680.0
1076.3201	27183922.0
1076.5701	26819262.0
1076.8201	26747158.0
1077.0701	27068726.0
1077.3201	27136060.0
1077.5701	27096794.0
1077.8201	27184254.0
1078.0701	26937598.0
1078.3201	26131184.0
1078.5701	24615266.0
1078.8201	26403838.0
1079.0701	27067644.0
1079.3201	26671822.0
1079.5701	26218982.0
1079.8201	26755002.0
1080.0701	26781332.0
1080.3201	26645120.0
1080.5701	26911790.0
1080.8201	26410008.0
1081.0701	22942812.0
1081.3201	26460442.0
1081.5701	26873664.0
1081.8201	26378986.0
1082.0701	26741160.0
1082.3201	26846700.0
1082.5701	25692518.0
1082.8201	23890360.0
1083.0701	26442448.0
1083.3201	26433214.0
1083.5701	26231488.0
1083.8201	26427112.0
1084.0701	26694498.0
1084.3201	25119298.0
1084.5701	26260678.0
1084.8201	26652828.0
1085.0701	26625796.0
1085.3201	26749010.0
1085.5701	26613990.0
1085.8201	26643348.0
1086.0701	26587556.0
1086.3201	25762992.0
1086.5701	26607840.0
1086.8201	23968130.0
1087.0701	23892438.0
1087.3201	26222632.0
1087.5701	26517080.0
1087.8201	26547420.0
1088.0701	26267824.0
1088.3201	25205020.0
1088.5701	24992834.0
1088.8201	26407428.0
1089.0701	26023916.0
1089.3201	26300588.0
1089.5701	25531386.0
1089.8201	26429922.0
1090.0701	26387046.0
1090.3201	26386332.0
1090.5701	26033464.0
1090.8201	26321366.0
1091.0701	26240090.0
1091.3201	25700410.0
1091.5701	24583822.0
1091.8201	25959992.0
1092.0701	25947286.0
1092.3201	25966508.0
1092.5701	25457296.0
1092.8201	25303602.0
1093.0701	25151780.0
1093.3201	24694530.0
1093.5701	23696286.0
1093.8201	20763616.0
1094.0701	23796854.0
1094.3201	24770010.0
1094.5701	25211204.0
1094.8201	25213174.0
1095.0701	25364218.0
1095.3201	24444436.0
1095.5701	25707290.0
1095.8201	24271368.0
1096.0701	25849836.0
1096.3201	25314250.0
1096.5701	23310250.0
1096.8201	25462092.0
1097.0701	25763906.0
1097.3201	25584582.0
1097.5701	25885320.0
1097.8201	23972494.0
1098.0701	24732644.0
1098.3201	24676128.0
1098.5701	25134904.0
1098.8201	25529808.0
1099.0701	25548304.0
1099.3201	25823678.0
1099.5701	25518038.0
1099.8201	25552458.0
1100.0701	25697990.0
1100.3201	25630798.0
1100.5701	25464944.0
1100.8201	25760500.0
1101.0701	25488504.0
1101.3201	24707130.0
1101.5701	25353504.0
1101.8201	23284510.0
1102.0701	25280596.0
1102.3201	25399012.0
1102.5701	25580570.0
1102.8201	25027742.0
1103.0701	25524088.0
1103.3201	25517036.0
1103.5701	25545416.0
1103.8201	25069782.0
1104.0701	25347196.0
1104.3201	25602302.0
1104.5701	25037312.0
1104.8201	25104012.0
1105.0701	25533226.0
1105.3201	25334674.0
1105.5701	25102182.0
1105.8201	25117784.0
1106.0701	25446040.0
1106.3201	25367100.0
1106.5701	25434316.0
1106.8201	25130500.0
1107.0701	25466814.0
1107.3201	25300226.0
1107.5701	25479006.0
1107.8201	25111428.0
1108.0701	25025976.0
1108.3201	25345742.0
1108.5701	25367544.0
1108.8201	25281698.0
1109.0701	24808180.0
1109.3201	25354968.0
1109.5701	25311652.0
1109.8201	24941764.0
1110.0701	25236360.0
1110.3201	25076816.0
1110.5701	25226880.0
1110.8201	25146472.0
1111.0701	25131500.0
1111.3201	25030486.0
1111.5701	25356614.0
1111.8201	25142588.0
1112.0701	23952702.0
1112.3201	25063132.0
1112.5701	24937216.0
1112.8201	25167248.0
1113.0701	23911368.0
1113.3201	24661270.0
1113.5701	25086980.0
1113.8201	25251930.0
1114.0701	24977156.0
1114.3201	25121830.0
1114.5701	24405310.0
1114.8201	24740066.0
1115.0701	25205410.0
1115.3201	24896346.0
1115.5701	25161566.0
1115.8201	24111574.0
1116.0701	24971060.0
1116.3201	24980554.0
1116.5701	25130472.0
1116.8201	24838444.0
1117.0701	24645680.0
1117.3201	24810746.0
1117.5701	24936768.0
1117.8201	24801062.0
1118.0701	24796452.0
1118.3201	24794908.0
1118.5701	24271812.0
1118.8201	23226140.0
1119.0701	24342564.0
1119.3201	24962928.0
1119.5701	23498360.0
1119.8201	24430606.0
1120.0701	24352004.0
1120.3201	24645144.0
1120.5701	24573432.0
1120.8201	24690462.0
1121.0701	24714280.0
1121.3201	24437406.0
1121.5701	24814132.0
1121.8201	24720706.0
1122.0701	24667660.0
1122.3201	24713392.0
1122.5701	24746546.0
1122.8201	24135634.0
1123.0701	24695892.0
1123.3201	24663342.0
1123.5701	24748468.0
1123.8201	24599734.0
1124.0701	24621792.0
1124.3201	24126566.0
1124.5701	24482448.0
1124.8201	24684708.0
1125.0701	23354638.0
1125.3201	22684550.0
1125.5701	22526752.0
1125.8201	24520112.0
1126.0701	23959248.0
1126.3201	24522598.0
1126.5701	24640758.0
1126.8201	24434118.0
1127.0701	24620160.0
1127.3201	24460016.0
1127.5701	24147906.0
1127.8201	24123232.0
1128.0701	24552742.0
1128.3201	24343050.0
1128.5701	24119666.0
1128.8201	24167522.0
1129.0701	22437964.0
1129.3201	24189882.0
1129.5701	23597096.0
1129.8201	23361352.0
1130.0701	24444280.0
1130.3201	24078318.0
1130.5701	24369156.0
1130.8201	23734076.0
1131.0701	23142304.0
1131.3201	24261046.0
1131.5701	23975690.0
1131.8201	24221560.0
1132.0701	23930166.0
1132.3201	24182336.0
1132.5701	24341336.0
1132.8201	24036800.0
1133.0701	22681428.0
1133.3201	23694202.0
1133.5701	24007082.0
1133.8201	23731560.0
1134.0701	24158914.0
1134.3201	24236980.0
1134.5701	24050984.0
1134.8201	23929866.0
1135.0701	24067436.0
1135.3201	23683470.0
1135.5701	23612744.0
1135.8201	24080480.0
1136.0701	23933626.0
1136.3201	24167238.0
1136.5701	24144988.0
1136.8201	23917216.0
1137.0701	24017332.0
1137.3201	22612912.0
1137.5701	23924008.0
1137.8201	23844064.0
1138.0701	22420852.0
1138.3201	24038526.0
1138.5701	23632762.0
1138.8201	23834258.0
1139.0701	22714014.0
1139.3201	23491008.0
1139.5701	23827826.0
1139.8201	23422328.0
1140.0701	23414512.0
1140.3201	21480612.0
1140.5701	23381070.0
1140.8201	23458988.0
1141.0701	23607154.0
1141.3201	23607608.0
1141.5701	23725262.0
1141.8201	23723024.0
1142.0701	23630858.0
1142.3201	22446384.0
1142.5701	23723220.0
1142.8201	23573168.0
1143.0701	23731564.0
1143.3201	23471078.0
1143.5701	23468288.0
1143.8201	22339280.0
1144.0701	23510112.0
1144.3201	23596432.0
1144.5701	23035632.0
1144.8201	23324530.0
1145.0701	23690558.0
1145.3201	23706116.0
1145.5701	23463600.0
1145.8201	23382914.0
1146.0701	23722738.0
1146.3201	23532810.0
1146.5701	23607492.0
1146.8201	23610556.0
1147.0701	23391296.0
1147.3201	23257242.0
1147.5701	23435702.0
1147.8201	23495962.0
1148.0701	23323616.0
1148.3201	23494546.0
1148.5701	22913754.0
1148.8201	23538266.0
1149.0701	23435388.0
1149.3201	23288906.0
1149.5701	23452674.0
1149.8201	23504778.0
1150.0701	23421534.0
1150.3201	22847474.0
1150.5701	23480122.0
1150.8201	23431292.0
1151.0701	23239296.0
1151.3201	23456866.0
1151.5701	23216548.0
1151.8201	22967042.0
1152.0701	23392284.0
1152.3201	22837098.0
1152.5701	23215586.0
1152.8201	23140028.0
1153.0701	23288204.0
1153.3201	23372768.0
1153.5701	23271552.0
1153.8201	23349512.0
1154.0701	22892718.0
1154.3201	23337532.0
1154.5701	23341356.0
1154.8201	23325328.0
1155.0701	23206318.0
1155.3201	23061014.0
1155.5701	23264828.0
1155.8201	23236360.0
1156.0701	23134154.0
1156.3201	23264462.0
1156.5701	23013820.0
1156.8201	23187304.0
1157.0701	23189178.0
1157.3201	23050310.0
1157.5701	23047240.0
1157.8201	22894174.0
1158.0701	23089654.0
1158.3201	23100740.0
1158.5701	22899910.0
1158.8201	22838628.0
1159.0701	22472754.0
1159.3201	21084316.0
1159.5701	22820460.0
1159.8201	23053772.0
1160.0701	22509788.0
1160.3201	22883500.0
1160.5701	22961486.0
1160.8201	21239580.0
1161.0701	20893184.0
1161.3201	22833736.0
1161.5701	22592862.0
1161.8201	22481028.0
1162.0701	22843160.0
1162.3201	22979842.0
1162.5701	22835384.0
1162.8201	22077646.0
1163.0701	22880062.0
1163.3201	22876556.0
1163.5701	22923298.0
1163.8201	21257248.0
1164.0701	22228400.0
1164.3201	22813760.0
1164.5701	22864458.0
1164.8201	22513834.0
1165.0701	22802852.0
1165.3201	22225654.0
1165.5701	22590398.0
1165.8201	21861260.0
1166.0701	21981624.0
1166.3201	22690594.0
1166.5701	22662316.0
1166.8201	22377024.0
1167.0701	21813040.0
1167.3201	22481820.0
1167.5701	22688690.0
1167.8201	22717862.0
1168.0701	22569746.0
1168.3201	22492664.0
1168.5701	22679294.0
1168.8201	22583840.0
1169.0701	20286896.0
1169.3201	22348692.0
1169.5701	22433518.0
1169.8201	22505174.0
1170.0701	22114406.0
1170.3201	22589610.0
1170.5701	22607494.0
1170.8201	22491754.0
1171.0701	22436776.0
1171.3201	22562740.0
1171.5701	22390590.0
1171.8201	22579312.0
1172.0701	22494006.0
1172.3201	22303730.0
1172.5701	22448976.0
1172.8201	22455496.0
1173.0701	22331764.0
1173.3201	22461740.0
1173.5701	22285200.0
1173.8201	22275410.0
1174.0701	22228852.0
1174.3201	22343726.0
1174.5701	22341300.0
1174.8201	21087802.0
1175.0701	22052328.0
1175.3201	20540112.0
1175.5701	20704278.0
1175.8201	22337568.0
1176.0701	22339584.0
1176.3201	22089752.0
1176.5701	22235602.0
1176.8201	22141852.0
1177.0701	22033830.0
1177.3201	21283432.0
1177.5701	22243920.0
1177.8201	21684856.0
1178.0701	22016658.0
1178.3201	20412880.0
1178.5701	22215940.0
1178.8201	22152190.0
1179.0701	22070194.0
1179.3201	22195530.0
1179.5701	22144782.0
1179.8201	22040284.0
1180.0701	21590852.0
1180.3201	22152782.0
1180.5701	22152414.0
1180.8201	22141460.0
1181.0701	21007254.0
1181.3201	21998810.0
1181.5701	22095948.0
1181.8201	22021926.0
1182.0701	21658572.0
1182.3201	21978670.0
1182.5701	21548362.0
1182.8201	17043078.0
1183.0701	21555358.0
1183.3201	21947990.0
1183.5701	22028826.0
1183.8201	20814016.0
1184.0701	21805866.0
1184.3201	21896952.0
1184.5701	21993328.0
1184.8201	21272676.0
1185.0701	21785424.0
1185.3201	21896230.0
1185.5701	21886244.0
1185.8201	21948534.0
1186.0701	21796742.0
1186.3201	21428004.0
1186.5701	21900580.0
1186.8201	21925770.0
1187.0701	21722836.0
1187.3201	21551382.0
1187.5701	21801336.0
1187.8201	21734690.0
1188.0701	21412502.0
1188.3201	18098962.0
1188.5701	21507450.0
1188.8201	21722710.0
1189.0701	21073312.0
1189.3201	20977756.0
1189.5701	20697348.0
1189.8201	21795776.0
1190.0701	21749898.0
1190.3201	21654560.0
1190.5701	21712752.0
1190.8201	21647404.0
1191.0701	21721272.0
1191.3201	21699568.0
1191.5701	21734980.0
1191.8201	21730152.0
1192.0701	21628312.0
1192.3201	21703370.0
1192.5701	21552910.0
1192.8201	21672144.0
1193.0701	21651314.0
1193.3201	21623736.0
1193.5701	21532412.0
1193.8201	21648096.0
1194.0701	21542350.0
1194.3201	21495828.0
1194.5701	21586398.0
1194.8201	21551902.0
1195.0701	20554406.0
1195.3201	21480962.0
1195.5701	20952406.0
1195.8201	21439044.0
1196.0701	21519404.0
1196.3201	21467856.0
1196.5701	21514702.0
1196.8201	21420364.0
1197.0701	21294254.0
1197.3201	18794204.0
1197.5701	21367902.0
1197.8201	21445776.0
1198.0701	21368480.0
1198.3201	18806568.0
1198.5701	20671458.0
1198.8201	21233196.0
1199.0701	19009938.0
1199.3201	21064102.0
1199.5701	21322312.0
1199.8201	21363454.0
1200.0701	21264546.0
1200.3201	21214486.0
1200.5701	20666850.0
1200.8201	21289550.0
1201.0701	21253344.0
1201.3201	21293612.0
1201.5701	21256042.0
1201.8201	21303294.0
1202.0701	21198254.0
1202.3201	21152704.0
1202.5701	21147122.0
1202.8201	21123484.0
1203.0701	17849004.0
1203.3201	20538280.0
1203.5701	21102668.0
1203.8201	20981592.0
1204.0701	20381726.0
1204.3201	21044344.0
1204.5701	21109420.0
1204.8201	21158684.0
1205.0701	21159340.0
1205.3201	20819524.0
1205.5701	21069068.0
1205.8201	21123220.0
1206.0701	21074764.0
1206.3201	20855664.0
1206.5701	20920772.0
1206.8201	20827736.0
1207.0701	20936254.0
1207.3201	20953108.0
1207.5701	20948120.0
1207.8201	20888896.0
1208.0701	20230000.0
1208.3201	15335617.0
1208.5701	20184190.0
1208.8201	20790670.0
1209.0701	20946504.0
1209.3201	20860152.0
1209.5701	20775052.0
1209.8201	20766686.0
1210.0701	20702814.0
1210.3201	18746968.0
1210.5701	20902162.0
1210.8201	20847932.0
1211.0701	20294298.0
1211.3201	20805864.0
1211.5701	20722754.0
1211.8201	20584190.0
1212.0701	20664574.0
1212.3201	20898690.0
1212.5701	20746868.0
1212.8201	20791406.0
1213.0701	20723778.0
1213.3201	20802594.0
1213.5701	20787160.0
1213.8201	20830142.0
1214.0701	20787062.0
1214.3201	20784052.0
1214.5701	20600412.0
1214.8201	20736298.0
1215.0701	20676780.0
1215.3201	20601574.0
1215.5701	20751084.0
1215.8201	20726186.0
1216.0701	20744548.0
1216.3201	20731906.0
1216.5701	20676604.0
1216.8201	20529250.0
1217.0701	20688804.0
1217.3201	20575006.0
1217.5701	20656076.0
1217.8201	20557994.0
1218.0701	20650326.0
1218.3201	20425592.0
1218.5701	20623076.0
1218.8201	20543470.0
1219.0701	20256038.0
1219.3201	20527984.0
1219.5701	20348802.0
1219.8201	20113788.0
1220.0701	20101094.0
1220.3201	20580732.0
1220.5701	20381888.0
1220.8201	20451294.0
1221.0701	20446950.0
1221.3201	19687032.0
1221.5701	20196298.0
1221.8201	20528448.0
1222.0701	20434504.0
1222.3201	20509506.0
1222.5701	20441356.0
1222.8201	19990854.0
1223.0701	20391226.0
1223.3201	20285092.0
1223.5701	20476482.0
1223.8201	20314604.0
1224.0701	20362136.0
1224.3201	20184580.0
1224.5701	20191312.0
1224.8201	20140108.0
1225.0701	19974812.0
1225.3201	20394414.0
1225.5701	20165712.0
1225.8201	20379046.0
1226.0701	20320000.0
1226.3201	20212258.0
1226.5701	20222490.0
1226.8201	20224060.0
1227.0701	18334528.0
1227.3201	20277774.0
1227.5701	20242978.0
1227.8201	20227648.0
1228.0701	20171766.0
1228.3201	20218828.0
1228.5701	20238044.0
1228.8201	20166334.0
1229.0701	20200300.0
1229.3201	20272448.0
1229.5701	20177142.0
1229.8201	20033174.0
1230.0701	20217300.0
1230.3201	20161054.0
1230.5701	20130946.0
1230.8201	20085612.0
1231.0701	20014170.0
1231.3201	19806136.0
1231.5701	20136088.0
1231.8201	20127190.0
1232.0701	19919450.0
1232.3201	19937578.0
1232.5701	20132808.0
1232.8201	20034692.0
1233.0701	19761262.0
1233.3201	19939676.0
1233.5701	19225138.0
1233.8201	19682518.0
1234.0701	19907976.0
1234.3201	19475352.0
1234.5701	19913334.0
1234.8201	19716584.0
1235.0701	19929836.0
1235.3201	19619796.0
1235.5701	19814834.0
1235.8201	18870140.0
1236.0701	19126090.0
1236.3201	19489278.0
1236.5701	19663806.0
1236.8201	19712944.0
1237.0701	19661588.0
1237.3201	19952408.0
1237.5701	19963142.0
1237.8201	19940490.0
1238.0701	19830540.0
1238.3201	19933646.0
1238.5701	19894472.0
1238.8201	19890004.0
1239.0701	19244524.0
1239.3201	19836574.0
1239.5701	18955912.0
1239.8201	19760672.0
1240.0701	19430874.0
1240.3201	19415820.0
1240.5701	19644824.0
1240.8201	19674894.0
1241.0701	19810260.0
1241.3201	19659306.0
1241.5701	19305960.0
1241.8201	19436912.0
1242.0701	19697960.0
1242.3201	18842976.0
1242.5701	19551294.0
1242.8201	19694008.0
1243.0701	19690968.0
1243.3201	18343244.0
1243.5701	19712714.0
1243.8201	19688452.0
1244.0701	19648036.0
1244.3201	19690614.0
1244.5701	19654008.0
1244.8201	19689636.0
1245.0701	19594474.0
1245.3201	19675448.0
1245.5701	19627186.0
1245.8201	19454608.0
1246.0701	19561610.0
1246.3201	19536840.0
1246.5701	19580264.0
1246.8201	19492588.0
1247.0701	18974226.0
1247.3201	19561120.0
1247.5701	19375020.0
1247.8201	19595868.0
1248.0701	19539688.0
1248.3201	19569380.0
1248.5701	19482170.0
1248.8201	19556984.0
1249.0701	19518624.0
1249.3201	19288908.0
1249.5701	19347250.0
1249.8201	19442678.0
1250.0701	19405464.0
1250.3201	19381126.0
1250.5701	19462716.0
1250.8201	18827618.0
1251.0701	18975968.0
1251.3201	18852256.0
1251.5701	18554904.0
1251.8201	18110226.0
1252.0701	18920492.0
1252.3201	18628026.0
1252.5701	19274102.0
1252.8201	19211338.0
1253.0701	19169380.0
1253.3201	18620422.0
1253.5701	19271312.0
1253.8201	19261428.0
1254.0701	19228848.0
1254.3201	19266892.0
1254.5701	19296470.0
1254.8201	19171506.0
1255.0701	19063830.0
1255.3201	19284010.0
1255.5701	19223948.0
1255.8201	19146512.0
1256.0701	18652316.0
1256.3201	18776684.0
1256.5701	18971266.0
1256.8201	18864160.0
1257.0701	19129398.0
1257.3201	19217744.0
1257.5701	19236852.0
1257.8201	19147172.0
1258.0701	18071244.0
1258.3201	18894200.0
1258.5701	19216954.0
1258.8201	18918506.0
1259.0701	19027912.0
1259.3201	19180216.0
1259.5701	19182404.0
1259.8201	19141554.0
1260.0701	18662704.0
1260.3201	19075388.0
1260.5701	19054094.0
1260.8201	18726894.0
1261.0701	18581288.0
1261.3201	18345840.0
1261.5701	18655446.0
1261.8201	19036370.0
1262.0701	19037778.0
1262.3201	19077672.0
1262.5701	19019698.0
1262.8201	18992632.0
1263.0701	18968688.0
1263.3201	19007888.0
1263.5701	19005058.0
1263.8201	17400936.0
1264.0701	18990392.0
1264.3201	18960120.0
1264.5701	18757526.0
1264.8201	18352476.0
1265.0701	18959832.0
1265.3201	18968624.0
1265.5701	18868448.0
1265.8201	18852282.0
1266.0701	18887040.0
1266.3201	18748390.0
1266.5701	18758686.0
1266.8201	18828234.0
1267.0701	18793602.0
1267.3201	18903864.0
1267.5701	18878258.0
1267.8201	17857532.0
1268.0701	18764288.0
1268.3201	18674372.0
1268.5701	18744476.0
1268.8201	18808980.0
1269.0701	18811576.0
1269.3201	18695580.0
1269.5701	18714336.0
1269.8201	18597810.0
1270.0701	18724772.0
1270.3201	18729610.0
1270.5701	18478178.0
1270.8201	18291860.0
1271.0701	18726826.0
1271.3201	18589306.0
1271.5701	18738788.0
1271.8201	18722008.0
1272.0701	18742566.0
1272.3201	18747132.0
1272.5701	18663030.0
1272.8201	18641914.0
1273.0701	18671148.0
1273.3201	18602760.0
1273.5701	18598514.0
1273.8201	18502350.0
1274.0701	18401820.0
1274.3201	18532536.0
1274.5701	18614022.0
1274.8201	18615030.0
1275.0701	18570558.0
1275.3201	18614506.0
1275.5701	18608010.0
1275.8201	18536522.0
1276.0701	18581090.0
1276.3201	18544588.0
1276.5701	18513278.0
1276.8201	18440062.0
1277.0701	18480470.0
1277.3201	18452800.0
1277.5701	18467334.0
1277.8201	18426514.0
1278.0701	18366144.0
1278.3201	18391562.0
1278.5701	18372358.0
1278.8201	18233802.0
1279.0701	18207970.0
1279.3201	18117598.0
1279.5701	18159552.0
1279.8201	18049674.0
1280.0701	17931846.0
1280.3201	17861702.0
1280.5701	17727616.0
1280.8201	17080644.0
1281.0701	17270018.0
1281.3201	16847308.0
1281.5701	15703958.0
1281.8201	13537207.0
1282.0701	16000687.0
1282.3201	16712255.0
1282.5701	16961438.0
1282.8201	17456294.0
1283.0701	17587770.0
1283.3201	17820450.0
1283.5701	17926840.0
1283.8201	17961476.0
1284.0701	17772496.0
1284.3201	18058792.0
1284.5701	18086946.0
1284.8201	17989608.0
1285.0701	18160610.0
1285.3201	18149024.0
1285.5701	18190860.0
1285.8201	18197642.0
1286.0701	18203348.0
1286.3201	18144982.0
1286.5701	18212048.0
1286.8201	18185342.0
1287.0701	17946402.0
1287.3201	18139040.0
1287.5701	18123902.0
1287.8201	18107226.0
1288.0701	17730500.0
1288.3201	18163120.0
1288.5701	18095250.0
1288.8201	18202814.0
1289.0701	18189434.0
1289.3201	18161490.0
1289.5701	17905968.0
1289.8201	18064852.0
1290.0701	16934986.0
1290.3201	18076826.0
1290.5701	18118236.0
1290.8201	17821656.0
1291.0701	17936204.0
1291.3201	18081610.0
1291.5701	18092684.0
1291.8201	18020364.0
1292.0701	18015612.0
1292.3201	17587118.0
1292.5701	17996714.0
1292.8201	17981594.0
1293.0701	17989140.0
1293.3201	17872186.0
1293.5701	17639592.0
1293.8201	17964638.0
1294.0701	17833416.0
1294.3201	18021888.0
1294.5701	17866186.0
1294.8201	17873218.0
1295.0701	17850692.0
1295.3201	17965344.0
1295.5701	17572188.0
1295.8201	17969312.0
1296.0701	17880882.0
1296.3201	17974228.0
1296.5701	17376272.0
1296.8201	17872490.0
1297.0701	17388928.0
1297.3201	17901878.0
1297.5701	17158016.0
1297.8201	17848500.0
1298.0701	17898262.0
1298.3201	17860536.0
1298.5701	17826194.0
1298.8201	17763414.0
1299.0701	17710450.0
1299.3201	17879880.0
1299.5701	17846702.0
1299.8201	17832864.0
1300.0701	17791644.0
1300.3201	17584318.0
1300.5701	17760938.0
1300.8201	17799986.0
1301.0701	17761850.0
1301.3201	17807620.0
1301.5701	17685752.0
1301.8201	17777630.0
1302.0701	17767112.0
1302.3201	17774238.0
1302.5701	17778602.0
1302.8201	17504610.0
1303.0701	17166778.0
1303.3201	17368452.0
1303.5701	17701702.0
1303.8201	17406318.0
1304.0701	17556810.0
1304.3201	17620618.0
1304.5701	17585152.0
1304.8201	17514102.0
1305.0701	17647904.0
1305.3201	17486804.0
1305.5701	17696486.0
1305.8201	17579434.0
1306.0701	17688252.0
1306.3201	16916184.0
1306.5701	17575640.0
1306.8201	17560204.0
1307.0701	17593206.0
1307.3201	17556576.0
1307.5701	17501340.0
1307.8201	17551080.0
1308.0701	17639206.0
1308.3201	17617214.0
1308.5701	17387288.0
1308.8201	17583662.0
1309.0701	17594052.0
1309.3201	17589080.0
1309.5701	17123460.0
1309.8201	17144350.0
1310.0701	17550950.0
1310.3201	17234752.0
1310.5701	17519816.0
1310.8201	17504388.0
1311.0701	17524672.0
1311.3201	17485016.0
1311.5701	17463054.0
1311.8201	17158738.0
1312.0701	16979650.0
1312.3201	14698371.0
1312.5701	17298472.0
1312.8201	17435614.0
1313.0701	17318714.0
1313.3201	17409416.0
1313.5701	16744654.0
1313.8201	17441396.0
1314.0701	17437248.0
1314.3201	17366426.0
1314.5701	17290470.0
1314.8201	16810952.0
1315.0701	15127528.0
1315.3201	16880260.0
1315.5701	17245088.0
1315.8201	17137222.0
1316.0701	17333174.0
1316.3201	17314800.0
1316.5701	17255466.0
1316.8201	17323402.0
1317.0701	17337478.0
1317.3201	17355358.0
1317.5701	16623245.0
1317.8201	17008430.0
1318.0701	16854766.0
1318.3201	17296850.0
1318.5701	17298702.0
1318.8201	17277990.0
1319.0701	17162976.0
1319.3201	17247052.0
1319.5701	17175234.0
1319.8201	17011994.0
1320.0701	17113568.0
1320.3201	17229758.0
1320.5701	17219750.0
1320.8201	16876582.0
1321.0701	17034524.0
1321.3201	16883154.0
1321.5701	17189828.0
1321.8201	17093416.0
1322.0701	17192516.0
1322.3201	17086298.0
1322.5701	17184440.0
1322.8201	17199268.0
1323.0701	17138006.0
1323.3201	17191796.0
1323.5701	17124870.0
1323.8201	17174372.0
1324.0701	17165150.0
1324.3201	17117668.0
1324.5701	17137680.0
1324.8201	17001486.0
1325.0701	16901140.0
1325.3201	17024480.0
1325.5701	17084792.0
1325.8201	17088022.0
1326.0701	16831846.0
1326.3201	17042632.0
1326.5701	16654412.0
1326.8201	16868212.0
1327.0701	17071740.0
1327.3201	17018976.0
1327.5701	17065540.0
1327.8201	16958232.0
1328.0701	16442072.0
1328.3201	17002906.0
1328.5701	16638844.0
1328.8201	15781147.0
1329.0701	16958050.0
1329.3201	16240512.0
1329.5701	16945354.0
1329.8201	16909128.0
1330.0701	16940874.0
1330.3201	16657299.0
1330.5701	16920054.0
1330.8201	16665653.0
1331.0701	16941250.0
1331.3201	16962178.0
1331.5701	16922852.0
1331.8201	15085573.0
1332.0701	16893878.0
1332.3201	16919776.0
1332.5701	16674857.0
1332.8201	16699785.0
1333.0701	16890946.0
1333.3201	16878762.0
1333.5701	16882386.0
1333.8201	16870404.0
1334.0701	16793156.0
1334.3201	16677810.0
1334.5701	16676833.0
1334.8201	16838934.0
1335.0701	16802290.0
1335.3201	16036021.0
1335.5701	16819336.0
1335.8201	16768749.0
1336.0701	16773982.0
1336.3201	16797306.0
1336.5701	16773385.0
1336.8201	16708878.0
1337.0701	16526253.0
1337.3201	16730686.0
1337.5701	16741757.0
1337.8201	16731243.0
1338.0701	16751917.0
1338.3201	16489146.0
1338.5701	16478879.0
1338.8201	16310578.0
1339.0701	16397764.0
1339.3201	16075200.0
1339.5701	16507080.0
1339.8201	16432541.0
1340.0701	16629968.0
1340.3201	16632959.0
1340.5701	16670866.0
1340.8201	16451625.0
1341.0701	16651456.0
1341.3201	16623552.0
1341.5701	16302899.0
1341.8201	16613274.0
1342.0701	16541544.0
1342.3201	16635853.0
1342.5701	16486910.0
1342.8201	16578984.0
1343.0701	16579882.0
1343.3201	16394325.0
1343.5701	16596489.0
1343.8201	16603744.0
1344.0701	16569689.0
1344.3201	16556707.0
1344.5701	16564837.0
1344.8201	16506994.0
1345.0701	16492561.0
1345.3201	16250555.0
1345.5701	16447609.0
1345.8201	16160873.0
1346.0701	16513916.0
1346.3201	16467934.0
1346.5701	16469843.0
1346.8201	16467502.0
1347.0701	16493998.0
1347.3201	16445417.0
1347.5701	16333330.0
1347.8201	16477503.0
1348.0701	16458408.0
1348.3201	16339781.0
1348.5701	16450805.0
1348.8201	16300513.0
1349.0701	16433014.0
1349.3201	16354723.0
1349.5701	15981412.0
1349.8201	16414061.0
1350.0701	16058080.0
1350.3201	15889997.0
1350.5701	16419703.0
1350.8201	16415236.0
1351.0701	16375400.0
1351.3201	16402975.0
1351.5701	16394131.0
1351.8201	16250292.0
1352.0701	16364431.0
1352.3201	16221487.0
1352.5701	16340591.0
1352.8201	16324883.0
1353.0701	16355925.0
1353.3201	16247827.0
1353.5701	16311331.0
1353.8201	16331941.0
1354.0701	16243855.0
1354.3201	16296341.0
1354.5701	15952411.0
1354.8201	15946456.0
1355.0701	16228753.0
1355.3201	15990488.0
1355.5701	16256130.0
1355.8201	15997497.0
1356.0701	15933546.0
1356.3201	16232270.0
1356.5701	15278610.0
1356.8201	16192573.0
1357.0701	16153379.0
1357.3201	16165216.0
1357.5701	16188137.0
1357.8201	16219234.0
1358.0701	16080890.0
1358.3201	16177462.0
1358.5701	16188762.0
1358.8201	15833137.0
1359.0701	15993279.0
1359.3201	16159265.0
1359.5701	16151467.0
1359.8201	16087374.0
1360.0701	15597249.0
1360.3201	15986445.0
1360.5701	16077611.0
1360.8201	16114380.0
1361.0701	16117729.0
1361.3201	16102003.0
1361.5701	16110221.0
1361.8201	16086526.0
1362.0701	15999547.0
1362.3201	16075820.0
1362.5701	15281212.0
1362.8201	16047038.0
1363.0701	15886846.0
1363.3201	16024353.0
1363.5701	15938033.0
1363.8201	16056549.0
1364.0701	16039328.0
1364.3201	15431265.0
1364.5701	16041029.0
1364.8201	15987772.0
1365.0701	15741951.0
1365.3201	16009643.0
1365.5701	15967134.0
1365.8201	15897593.0
1366.0701	15968176.0
1366.3201	15947644.0
1366.5701	15979541.0
1366.8201	15235956.0
1367.0701	15912389.0
1367.3201	15975267.0
1367.5701	15914893.0
1367.8201	15946286.0
1368.0701	15698382.0
1368.3201	15091925.0
1368.5701	15911265.0
1368.8201	15779589.0
1369.0701	15899458.0
1369.3201	15600148.0
1369.5701	15852539.0
1369.8201	14855245.0
1370.0701	15854703.0
1370.3201	15723974.0
1370.5701	15435410.0
1370.8201	15859437.0
1371.0701	15542205.0
1371.3201	15854200.0
1371.5701	15858231.0
1371.8201	15703675.0
1372.0701	15386657.0
1372.3201	15774483.0
1372.5701	15325144.0
1372.8201	15694123.0
1373.0701	15648987.0
1373.3201	15087147.0
1373.5701	15660906.0
1373.8201	15789398.0
1374.0701	15450677.0
1374.3201	14980686.0
1374.5701	15728659.0
1374.8201	15742088.0
1375.0701	15603677.0
1375.3201	15673580.0
1375.5701	14905448.0
1375.8201	15639612.0
1376.0701	15729855.0
1376.3201	15517816.0
1376.5701	15230661.0
1376.8201	15722061.0
1377.0701	15711737.0
1377.3201	15600461.0
1377.5701	15238778.0
1377.8201	15638134.0
1378.0701	15689633.0
1378.3201	15662219.0
1378.5701	15653056.0
1378.8201	15636644.0
1379.0701	15553945.0
1379.3201	15635006.0
1379.5701	15628494.0
1379.8201	15221226.0
1380.0701	15585328.0
1380.3201	15627970.0
1380.5701	15618975.0
1380.8201	15506323.0
1381.0701	15579202.0
1381.3201	15523377.0
1381.5701	15165044.0
1381.8201	15527890.0
1382.0701	15598842.0
1382.3201	15404472.0
1382.5701	15367208.0
1382.8201	15526265.0
1383.0701	15145583.0
1383.3201	15440141.0
1383.5701	15504149.0
1383.8201	15557637.0
1384.0701	15510918.0
1384.3201	15482630.0
1384.5701	15496205.0
1384.8201	15015831.0
1385.0701	15184093.0
1385.3201	15426403.0
1385.5701	15441881.0
1385.8201	15445279.0
1386.0701	15469800.0
1386.3201	14772723.0
1386.5701	15240470.0
1386.8201	15386665.0
1387.0701	15280455.0
1387.3201	15449426.0
1387.5701	15367327.0
1387.8201	15360057.0
1388.0701	15434613.0
1388.3201	15431472.0
1388.5701	15359729.0
1388.8201	15351833.0
1389.0701	15403652.0
1389.3201	15293154.0
1389.5701	15170517.0
1389.8201	14585181.0
1390.0701	15393842.0
1390.3201	15301128.0
1390.5701	15197321.0
1390.8201	15314107.0
1391.0701	15352518.0
1391.3201	15345540.0
1391.5701	15355086.0
1391.8201	15161074.0
1392.0701	15335780.0
1392.3201	15223203.0
1392.5701	15208740.0
1392.8201	15292272.0
1393.0701	15298332.0
1393.3201	15211446.0
1393.5701	15271914.0
1393.8201	15091576.0
1394.0701	14932702.0
1394.3201	15193458.0
1394.5701	15223326.0
1394.8201	15082596.0
1395.0701	14761530.0
1395.3201	15053985.0
1395.5701	15181902.0
1395.8201	15171917.0
1396.0701	15080227.0
1396.3201	15183068.0
1396.5701	15135189.0
1396.8201	15098577.0
1397.0701	15212641.0
1397.3201	15199875.0
1397.5701	15164541.0
1397.8201	14988290.0
1398.0701	15139219.0
1398.3201	15168920.0
1398.5701	14910162.0
1398.8201	15169471.0
1399.0701	14968346.0
1399.3201	15082882.0
1399.5701	14122865.0
1399.8201	14523629.0
1400.0701	15124236.0
1400.3201	14924639.0
1400.5701	14802202.0
1400.8201	14248509.0
1401.0701	15067886.0
1401.3201	15110565.0
1401.5701	15095488.0
1401.8201	15061679.0
1402.0701	15003505.0
1402.3201	15049984.0
1402.5701	14410026.0
1402.8201	14784690.0
1403.0701	15050653.0
1403.3201	15057002.0
1403.5701	15016946.0
1403.8201	14817745.0
1404.0701	14904362.0
1404.3201	15002045.0
1404.5701	15032929.0
1404.8201	14950102.0
1405.0701	15039816.0
1405.3201	15018529.0
1405.5701	15006845.0
1405.8201	14893140.0
1406.0701	14667601.0
1406.3201	14880109.0
1406.5701	14909415.0
1406.8201	14900633.0
1407.0701	14838325.0
1407.3201	14648860.0
1407.5701	14868231.0
1407.8201	14925382.0
1408.0701	14262098.0
1408.3201	14843707.0
1408.5701	14872167.0
1408.8201	14933399.0
1409.0701	14874143.0
1409.3201	14742069.0
1409.5701	14827698.0
1409.8201	14757317.0
1410.0701	14884763.0
1410.3201	14767780.0
1410.5701	14850219.0
1410.8201	14769747.0
1411.0701	14739646.0
1411.3201	13978571.0
1411.5701	14701468.0
1411.8201	14707969.0
1412.0701	13996221.0
1412.3201	14672951.0
1412.5701	14622242.0
1412.8201	13834823.0
1413.0701	14571594.0
1413.3201	14739946.0
1413.5701	14745763.0
1413.8201	14535444.0
1414.0701	14770698.0
1414.3201	14745232.0
1414.5701	14722485.0
1414.8201	14701957.0
1415.0701	14586623.0
1415.3201	14736667.0
1415.5701	14430493.0
1415.8201	14299915.0
1416.0701	14517946.0
1416.3201	14625905.0
1416.5701	14704397.0
1416.8201	14571643.0
1417.0701	14598131.0
1417.3201	14736988.0
1417.5701	14689183.0
1417.8201	14656635.0
1418.0701	14553852.0
1418.3201	14097260.0
1418.5701	14651672.0
1418.8201	14458868.0
1419.0701	14588647.0
1419.3201	14629803.0
1419.5701	14328065.0
1419.8201	14625933.0
1420.0701	14451564.0
1420.3201	14234279.0
1420.5701	13895775.0
1420.8201	14627541.0
1421.0701	14501930.0
1421.3201	14449334.0
1421.5701	14624024.0
1421.8201	14535176.0
1422.0701	14005714.0
1422.3201	14296172.0
1422.5701	13927911.0
1422.8201	14503985.0
1423.0701	14583994.0
1423.3201	14493715.0
1423.5701	13278322.0
1423.8201	13945588.0
1424.0701	14417234.0
1424.3201	14439582.0
1424.5701	14527289.0
1424.8201	14357049.0
1425.0701	14324261.0
1425.3201	13764041.0
1425.5701	14328636.0
1425.8201	13859775.0
1426.0701	13843902.0
1426.3201	14454275.0
1426.5701	14450579.0
1426.8201	14383421.0
1427.0701	13198478.0
1427.3201	14368817.0
1427.5701	14401749.0
1427.8201	14486646.0
1428.0701	14341274.0
1428.3201	14401228.0
1428.5701	13335860.0
1428.8201	14421325.0
1429.0701	13818987.0
1429.3201	12905960.0
1429.5701	14265190.0
1429.8201	14144350.0
1430.0701	14229097.0
1430.3201	14364504.0
1430.5701	14074795.0
1430.8201	13362609.0
1431.0701	14189107.0
1431.3201	14238082.0
1431.5701	14325705.0
1431.8201	14045834.0
1432.0701	14348939.0
1432.3201	14181305.0
1432.5701	14382593.0
1432.8201	14332645.0
1433.0701	14208018.0
1433.3201	14297733.0
1433.5701	14157239.0
1433.8201	14245509.0
1434.0701	14262396.0
1434.3201	14202826.0
1434.5701	14158700.0
1434.8201	14234845.0
1435.0701	14205773.0
1435.3201	14090834.0
1435.5701	14226275.0
1435.8201	14256097.0
1436.0701	13962232.0
1436.3201	14252179.0
1436.5701	14288649.0
1436.8201	14250540.0
1437.0701	14111951.0
1437.3201	14118213.0
1437.5701	14194531.0
1437.8201	14138640.0
1438.0701	14102370.0
1438.3201	14205435.0
1438.5701	14191259.0
1438.8201	14176417.0
1439.0701	14003068.0
1439.3201	14100922.0
1439.5701	13980860.0
1439.8201	13834216.0
1440.0701	11354888.0
1440.3201	13390889.0
1440.5701	13944654.0
1440.8201	14164110.0
1441.0701	14159358.0
1441.3201	14036167.0
1441.5701	13973094.0
1441.8201	13956493.0
1442.0701	12873127.0
1442.3201	13965059.0
1442.5701	13840662.0
1442.8201	13405250.0
1443.0701	13873398.0
1443.3201	13967078.0
1443.5701	14025975.0
1443.8201	13588123.0
1444.0701	13890455.0
1444.3201	12911608.0
1444.5701	14069826.0
1444.8201	14044935.0
1445.0701	14033310.0
1445.3201	14067340.0
1445.5701	13882070.0
1445.8201	13536166.0
1446.0701	13844549.0
1446.3201	13717275.0
1446.5701	13741230.0
1446.8201	13938752.0
1447.0701	13959427.0
1447.3201	14015991.0
1447.5701	13917250.0
1447.8201	13827315.0
1448.0701	13319625.0
1448.3201	13698601.0
1448.5701	13772888.0
1448.8201	13975501.0
1449.0701	13523545.0
1449.3201	13852558.0
1449.5701	13966313.0
1449.8201	13230227.0
1450.0701	13655078.0
1450.3201	13311552.0
1450.5701	13852222.0
1450.8201	13830795.0
1451.0701	13494389.0
1451.3201	12666757.0
1451.5701	13921435.0
1451.8201	13845179.0
1452.0701	13769163.0
1452.3201	13348043.0
1452.5701	13653893.0
1452.8201	13746723.0
1453.0701	13733109.0
1453.3201	13745056.0
1453.5701	13816233.0
1453.8201	13604641.0
1454.0701	13611755.0
1454.3201	11831738.0
1454.5701	13311406.0
1454.8201	13720674.0
1455.0701	13743503.0
1455.3201	13719139.0
1455.5701	12541962.0
1455.8201	13633457.0
1456.0701	13779410.0
1456.3201	13754643.0
1456.5701	12952206.0
1456.8201	13339546.0
1457.0701	13751094.0
1457.3201	13687159.0
1457.5701	13705129.0
1457.8201	13710271.0
1458.0701	13728768.0
1458.3201	13746666.0
1458.5701	13778431.0
1458.8201	13269666.0
1459.0701	13664530.0
1459.3201	13340105.0
1459.5701	13709804.0
1459.8201	13642164.0
1460.0701	13391455.0
1460.3201	13170257.0
1460.5701	13574770.0
1460.8201	13717219.0
1461.0701	13607759.0
1461.3201	13693887.0
1461.5701	13158783.0
1461.8201	13641208.0
1462.0701	13363855.0
1462.3201	13667569.0
1462.5701	13654827.0
1462.8201	13170698.0
1463.0701	13340560.0
1463.3201	13663750.0
1463.5701	13235260.0
1463.8201	13138288.0
1464.0701	13411237.0
1464.3201	13572558.0
1464.5701	13600913.0
1464.8201	13104734.0
1465.0701	12218185.0
1465.3201	12443849.0
1465.5701	13394557.0
1465.8201	13493365.0
1466.0701	13605504.0
1466.3201	13584911.0
1466.5701	13519754.0
1466.8201	13540921.0
1467.0701	13569758.0
1467.3201	13321402.0
1467.5701	13514124.0
1467.8201	13429778.0
1468.0701	13319707.0
1468.3201	13449569.0
1468.5701	13505469.0
1468.8201	13528671.0
1469.0701	12872433.0
1469.3201	13562118.0
1469.5701	13463397.0
1469.8201	13441958.0
1470.0701	12917938.0
1470.3201	12559635.0
1470.5701	13478700.0
1470.8201	13077014.0
1471.0701	13027939.0
1471.3201	13499413.0
1471.5701	13125286.0
1471.8201	13246184.0
1472.0701	12806431.0
1472.3201	12928013.0
1472.5701	13433269.0
1472.8201	13407065.0
1473.0701	13434890.0
1473.3201	13319654.0
1473.5701	13455343.0
1473.8201	12748638.0
1474.0701	13283147.0
1474.3201	13416112.0
1474.5701	13289705.0
1474.8201	13317798.0
1475.0701	12314761.0
1475.3201	13037736.0
1475.5701	12863086.0
1475.8201	13289727.0
1476.0701	13394674.0
1476.3201	13328152.0
1476.5701	13253713.0
1476.8201	13004341.0
1477.0701	12999093.0
1477.3201	13246630.0
1477.5701	13340559.0
1477.8201	13102886.0
1478.0701	12683360.0
1478.3201	12452108.0
1478.5701	13377233.0
1478.8201	13261454.0
1479.0701	13272097.0
1479.3201	13224871.0
1479.5701	13270533.0
1479.8201	13275638.0
1480.0701	13132954.0
1480.3201	13232413.0
1480.5701	12749189.0
1480.8201	13045425.0
1481.0701	13169989.0
1481.3201	13292726.0
1481.5701	12757309.0
1481.8201	13235671.0
1482.0701	13230407.0
1482.3201	13152467.0
1482.5701	12109607.0
1482.8201	13166367.0
1483.0701	13196504.0
1483.3201	12779201.0
1483.5701	12966873.0
1483.8201	13023764.0
1484.0701	13137979.0
1484.3201	12872756.0
1484.5701	13196153.0
1484.8201	12963257.0
1485.0701	12633732.0
1485.3201	13072401.0
1485.5701	13197981.0
1485.8201	13138870.0
1486.0701	12516487.0
1486.3201	12829616.0
1486.5701	12917133.0
1486.8201	12948034.0
1487.0701	12667054.0
1487.3201	12293760.0
1487.5701	11273440.0
1487.8201	8333657.5
1488.0701	12189267.0
1488.3201	12882076.0
1488.5701	12966324.0
1488.8201	13038734.0
1489.0701	13047012.0
1489.3201	13080657.0
1489.5701	12994173.0
1489.8201	12321115.0
1490.0701	13003337.0
1490.3201	12617907.0
1490.5701	13040874.0
1490.8201	12866239.0
1491.0701	12272832.0
1491.3201	13032044.0
1491.5701	12937160.0
1491.8201	12928888.0
1492.0701	13076676.0
1492.3201	13032227.0
1492.5701	12984001.0
1492.8201	12905026.0
1493.0701	13060784.0
1493.3201	12970451.0
1493.5701	12971823.0
1493.8201	12563518.0
1494.0701	13018935.0
1494.3201	13051906.0
1494.5701	12885895.0
1494.8201	12793230.0
1495.0701	13012510.0
1495.3201	12949845.0
1495.5701	11813936.0
1495.8201	12630083.0
1496.0701	12875845.0
1496.3201	12898209.0
1496.5701	12948685.0
1496.8201	12278799.0
1497.0701	12953173.0
1497.3201	12812145.0
1497.5701	12987057.0
1497.8201	12853095.0
1498.0701	12117610.0
1498.3201	12746235.0
1498.5701	12892091.0
1498.8201	12209743.0
1499.0701	12879610.0
1499.3201	12919578.0
1499.5701	12862397.0
1499.8201	12858145.0
1500.0701	12867954.0
1500.3201	12698147.0
1500.5701	12877733.0
1500.8201	12648205.0
1501.0701	12716130.0
1501.3201	12261975.0
1501.5701	12725050.0
1501.8201	12124240.0
1502.0701	12506776.0
1502.3201	11120990.0
1502.5701	9154535.0
1502.8201	12317867.0
1503.0701	12633556.0
1503.3201	12689096.0
1503.5701	12490166.0
1503.8201	11931283.0
1504.0701	9337132.0
1504.3201	12415280.0
1504.5701	12169609.0
1504.8201	10257945.0
1505.0701	11545927.0
1505.3201	12472307.0
1505.5701	12760412.0
1505.8201	12672638.0
1506.0701	12686582.0
1506.3201	12447978.0
1506.5701	12760358.0
1506.8201	12711703.0
1507.0701	12641193.0
1507.3201	12709602.0
1507.5701	12735615.0
1507.8201	11888329.0
1508.0701	12725021.0
1508.3201	12713543.0
1508.5701	12749377.0
1508.8201	12695820.0
1509.0701	12723485.0
1509.3201	12644812.0
1509.5701	11449626.0
1509.8201	12567074.0
1510.0701	12474241.0
1510.3201	12695884.0
1510.5701	12560723.0
1510.8201	12692849.0
1511.0701	12678909.0
1511.3201	12630934.0
1511.5701	12386696.0
1511.8201	12373202.0
1512.0701	12326688.0
1512.3201	11985156.0
1512.5701	12603625.0
1512.8201	12619202.0
1513.0701	12646767.0
1513.3201	12569285.0
1513.5701	11833149.0
1513.8201	12419172.0
1514.0701	12636810.0
1514.3201	12108349.0
1514.5701	12550731.0
1514.8201	12592400.0
1515.0701	12629344.0
1515.3201	12514106.0
1515.5701	12327596.0
1515.8201	12009973.0
1516.0701	12347765.0
1516.3201	12169241.0
1516.5701	12550411.0
1516.8201	12199231.0
1517.0701	12558195.0
1517.3201	12490496.0
1517.5701	12361585.0
1517.8201	12420859.0
1518.0701	12443779.0
1518.3201	12170703.0
1518.5701	12389046.0
1518.8201	12483186.0
1519.0701	12465378.0
1519.3201	12479165.0
1519.5701	12184147.0
1519.8201	12168009.0
1520.0701	12292717.0
1520.3201	12278522.0
1520.5701	12459185.0
1520.8201	11382697.0
1521.0701	12348300.0
1521.3201	12390196.0
1521.5701	12472656.0
1521.8201	11797742.0
1522.0701	11704678.0
1522.3201	12449171.0
1522.5701	12100870.0
1522.8201	12364768.0
1523.0701	11921256.0
1523.3201	12307930.0
1523.5701	12349804.0
1523.8201	12385955.0
1524.0701	12151195.0
1524.3201	11972635.0
1524.5701	11839585.0
1524.8201	12430748.0
1525.0701	12288388.0
1525.3201	12310265.0
1525.5701	12390861.0
1525.8201	12287492.0
1526.0701	12279821.0
1526.3201	11814347.0
1526.5701	12319937.0
1526.8201	12312720.0
1527.0701	12270560.0
1527.3201	12353219.0
1527.5701	12332381.0
1527.8201	12289048.0
1528.0701	12170124.0
1528.3201	12232193.0
1528.5701	12265844.0
1528.8201	12259833.0
1529.0701	12190659.0
1529.3201	11154152.0
1529.5701	10913216.0
1529.8201	12119264.0
1530.0701	12077421.0
1530.3201	12253013.0
1530.5701	12170252.0
1530.8201	12180577.0
1531.0701	12253635.0
1531.3201	12244188.0
1531.5701	11760242.0
1531.8201	12123335.0
1532.0701	12232679.0
1532.3201	12200292.0
1532.5701	12212455.0
1532.8201	12163407.0
1533.0701	12122206.0
1533.3201	12187512.0
1533.5701	11222448.0
1533.8201	12172394.0
1534.0701	12131798.0
1534.3201	11582263.0
1534.5701	12163322.0
1534.8201	11901947.0
1535.0701	12018975.0
1535.3201	12131729.0
1535.5701	12188353.0
1535.8201	12113127.0
1536.0701	11956946.0
1536.3201	12133409.0
1536.5701	12186545.0
1536.8201	12166759.0
1537.0701	12124907.0
1537.3201	12165292.0
1537.5701	11046378.0
1537.8201	11919720.0
1538.0701	12013905.0
1538.3201	12079261.0
1538.5701	11829143.0
1538.8201	12065555.0
1539.0701	12067011.0
1539.3201	12037600.0
1539.5701	10780727.0
1539.8201	11916125.0
1540.0701	11724080.0
1540.3201	11602044.0
1540.5701	12047468.0
1540.8201	12024691.0
1541.0701	12027884.0
1541.3201	12028544.0
1541.5701	11937882.0
1541.8201	11950460.0
1542.0701	11735336.0
1542.3201	11386992.0
1542.5701	12000070.0
1542.8201	11935847.0
1543.0701	11994972.0
1543.3201	11900595.0
1543.5701	11925903.0
1543.8201	11961933.0
1544.0701	11980648.0
1544.3201	11906295.0
1544.5701	11930101.0
1544.8201	11961776.0
1545.0701	11789768.0
1545.3201	11917744.0
1545.5701	11959197.0
1545.8201	11914103.0
1546.0701	11935699.0
1546.3201	11880904.0
1546.5701	11777511.0
1546.8201	11942251.0
1547.0701	11600415.0
1547.3201	11865670.0
1547.5701	11650325.0
1547.8201	11429019.0
1548.0701	11776760.0
1548.3201	11898466.0
1548.5701	11748163.0
1548.8201	11779580.0
1549.0701	11810824.0
1549.3201	11653340.0
1549.5701	11597291.0
1549.8201	11705565.0
1550.0701	11356770.0
1550.3201	11830276.0
1550.5701	11817017.0
1550.8201	11830629.0
1551.0701	11726374.0
1551.3201	11731979.0
1551.5701	11859324.0
1551.8201	11655321.0
1552.0701	11751226.0
1552.3201	11674098.0
1552.5701	11835919.0
1552.8201	11769795.0
1553.0701	11256284.0
1553.3201	11270588.0
1553.5701	11745198.0
1553.8201	11456767.0
1554.0701	11621966.0
1554.3201	11190056.0
1554.5701	11664626.0
1554.8201	11717659.0
1555.0701	11528396.0
1555.3201	11605612.0
1555.5701	11236519.0
1555.8201	10942968.0
1556.0701	11499613.0
1556.3201	11613083.0
1556.5701	11583880.0
1556.8201	11635894.0
1557.0701	11564981.0
1557.3201	11645268.0
1557.5701	11664489.0
1557.8201	11675122.0
1558.0701	11683740.0
1558.3201	11660966.0
1558.5701	11308939.0
1558.8201	11226713.0
1559.0701	11061285.0
1559.3201	11355548.0
1559.5701	11639658.0
1559.8201	11532911.0
1560.0701	11719273.0
1560.3201	11580836.0
1560.5701	11602082.0
1560.8201	11672540.0
1561.0701	11614466.0
1561.3201	11639628.0
1561.5701	11612609.0
1561.8201	11535241.0
1562.0701	10530430.0
1562.3201	11570660.0
1562.5701	11674181.0
1562.8201	11629447.0
1563.0701	11057331.0
1563.3201	11020541.0
1563.5701	11608505.0
1563.8201	11478122.0
1564.0701	11520194.0
1564.3201	11590232.0
1564.5701	11320564.0
1564.8201	11234821.0
1565.0701	11615691.0
1565.3201	11250770.0
1565.5701	11432239.0
1565.8201	11503580.0
1566.0701	11230473.0
1566.3201	11002140.0
1566.5701	11224448.0
1566.8201	11574771.0
1567.0701	11317112.0
1567.3201	10949748.0
1567.5701	11368507.0
1567.8201	11191296.0
1568.0701	11284442.0
1568.3201	11269587.0
1568.5701	10882052.0
1568.8201	11386935.0
1569.0701	11281477.0
1569.3201	10235643.0
1569.5701	11298346.0
1569.8201	11320398.0
1570.0701	11309631.0
1570.3201	11265438.0
1570.5701	11334202.0
1570.8201	11307248.0
1571.0701	11340269.0
1571.3201	11354788.0
1571.5701	11309869.0
1571.8201	11397849.0
1572.0701	11402273.0
1572.3201	10534476.0
1572.5701	11356702.0
1572.8201	11282960.0
1573.0701	11275699.0
1573.3201	11391928.0
1573.5701	11384759.0
1573.8201	11335450.0
1574.0701	9266640.0
1574.3201	11055700.0
1574.5701	11114688.0
1574.8201	9141007.0
1575.0701	10803688.0
1575.3201	11302689.0
1575.5701	11371775.0
1575.8201	11353907.0
1576.0701	11193491.0
1576.3201	10916206.0
1576.5701	8347096.0
1576.8201	9934091.0
1577.0701	10439359.0
1577.3201	10985321.0
1577.5701	11358755.0
1577.8201	11249916.0
1578.0701	11364549.0
1578.3201	11348422.0
1578.5701	11174996.0
1578.8201	10928402.0
1579.0701	11173678.0
1579.3201	11376393.0
1579.5701	11368122.0
1579.8201	10901117.0
1580.0701	11183411.0
1580.3201	11359545.0
1580.5701	11170639.0
1580.8201	11337328.0
1581.0701	11197143.0
1581.3201	11288269.0
1581.5701	11038354.0
1581.8201	10054105.0
1582.0701	11044097.0
1582.3201	10421818.0
1582.5701	11298315.0
1582.8201	11218359.0
1583.0701	11234254.0
1583.3201	10477454.0
1583.5701	10737292.0
1583.8201	10855549.0
1584.0701	11219009.0
1584.3201	11201881.0
1584.5701	11108995.0
1584.8201	11152315.0
1585.0701	11079375.0
1585.3201	10730221.0
1585.5701	11122812.0
1585.8201	10991738.0
1586.0701	10866077.0
1586.3201	10686920.0
1586.5701	10997269.0
1586.8201	10224539.0
1587.0701	10968887.0
1587.3201	10799897.0
1587.5701	10911227.0
1587.8201	10219392.0
1588.0701	10466732.0
1588.3201	10458338.0
1588.5701	10115892.0
1588.8201	8762932.0
1589.0701	10326394.0
1589.3201	10679777.0
1589.5701	10260529.0
1589.8201	10578705.0
1590.0701	10702873.0
1590.3201	10469794.0
1590.5701	10094027.0
1590.8201	10800232.0
1591.0701	10406378.0
1591.3201	10589747.0
1591.5701	11032944.0
1591.8201	10942733.0
1592.0701	10695574.0
1592.3201	11041019.0
1592.5701	11085370.0
1592.8201	10721950.0
1593.0701	10862980.0
1593.3201	10910748.0
1593.5701	11071443.0
1593.8201	10892296.0
1594.0701	10697294.0
1594.3201	10978111.0
1594.5701	11060196.0
1594.8201	11035968.0
1595.0701	11028480.0
1595.3201	10437443.0
1595.5701	10480867.0
1595.8201	10842010.0
1596.0701	9597295.0
1596.3201	10804420.0
1596.5701	10398632.0
1596.8201	10954542.0
1597.0701	10815346.0
1597.3201	11075387.0
1597.5701	11050195.0
1597.8201	11025007.0
1598.0701	10221475.0
1598.3201	10924415.0
1598.5701	11059096.0
1598.8201	10852162.0
1599.0701	10951694.0
1599.3201	10998480.0
1599.5701	10988665.0
1599.8201	10888279.0
1600.0701	10990807.0
1600.3201	10806318.0
1600.5701	9905273.0
1600.8201	10400092.0
1601.0701	10554328.0
1601.3201	10956537.0
1601.5701	10698494.0
1601.8201	10941667.0
1602.0701	10439551.0
1602.3201	10870441.0
1602.5701	10909457.0
1602.8201	10914072.0
1603.0701	10905610.0
1603.3201	10879143.0
1603.5701	10813922.0
1603.8201	10811843.0
1604.0701	9895777.0
1604.3201	10543089.0
1604.5701	10798386.0
1604.8201	10878513.0
1605.0701	10534732.0
1605.3201	10839912.0
1605.5701	10832169.0
1605.8201	10533565.0
1606.0701	9879766.0
1606.3201	10767661.0
1606.5701	10780586.0
1606.8201	10786388.0
1607.0701	10312146.0
1607.3201	10428975.0
1607.5701	10676797.0
1607.8201	10668571.0
1608.0701	10693478.0
1608.3201	10666607.0
1608.5701	10653194.0
1608.8201	10500978.0
1609.0701	10432533.0
1609.3201	10386683.0
1609.5701	9491616.0
1609.8201	10394299.0
1610.0701	10268984.0
1610.3201	9600048.0
1610.5701	10295106.0
1610.8201	10309706.0
1611.0701	10301335.0
1611.3201	10296342.0
1611.5701	10072143.0
1611.8201	10426163.0
1612.0701	10462588.0
1612.3201	10426823.0
1612.5701	10048675.0
1612.8201	10497212.0
1613.0701	10539024.0
1613.3201	10538211.0
1613.5701	9983301.0
1613.8201	10474541.0
1614.0701	10597221.0
1614.3201	10625512.0
1614.5701	10634789.0
1614.8201	10569099.0
1615.0701	9870387.0
1615.3201	10172327.0
1615.5701	9891795.0
1615.8201	9811222.0
1616.0701	10663137.0
1616.3201	10157389.0
1616.5701	9946757.0
1616.8201	10598733.0
1617.0701	10606422.0
1617.3201	10631632.0
1617.5701	10445431.0
1617.8201	10497190.0
1618.0701	10093027.0
1618.3201	10591432.0
1618.5701	10012566.0
1618.8201	10476002.0
1619.0701	10612695.0
1619.3201	10505153.0
1619.5701	10000788.0
1619.8201	9411715.0
1620.0701	10482308.0
1620.3201	10046653.0
1620.5701	10558572.0
1620.8201	10084043.0
1621.0701	10605018.0
1621.3201	10251328.0
1621.5701	10002580.0
1621.8201	10595146.0
1622.0701	10596985.0
1622.3201	10578137.0
1622.5701	10207171.0
1622.8201	10467579.0
1623.0701	10245732.0
1623.3201	10404499.0
1623.5701	10015028.0
1623.8201	10510728.0
1624.0701	10013261.0
1624.3201	10496285.0
1624.5701	10405191.0
1624.8201	10539182.0
1625.0701	10529260.0
1625.3201	10430349.0
1625.5701	10522981.0
1625.8201	10436552.0
1626.0701	10445903.0
1626.3201	10392550.0
1626.5701	10495446.0
1626.8201	10479924.0
1627.0701	10442552.0
1627.3201	10458322.0
1627.5701	10424078.0
1627.8201	10477997.0
1628.0701	10405458.0
1628.3201	10452859.0
1628.5701	10349207.0
1628.8201	10451601.0
1629.0701	10388439.0
1629.3201	10006169.0
1629.5701	10355944.0
1629.8201	10263811.0
1630.0701	10322043.0
1630.3201	10410394.0
1630.5701	10445733.0
1630.8201	10420475.0
1631.0701	10029358.0
1631.3201	10294279.0
1631.5701	9653616.0
1631.8201	10351007.0
1632.0701	10391488.0
1632.3201	10104867.0
1632.5701	10161038.0
1632.8201	10390362.0
1633.0701	10088639.0
1633.3201	9911329.0
1633.5701	10085479.0
1633.8201	10307079.0
1634.0701	10306706.0
1634.3201	10312415.0
1634.5701	10113434.0
1634.8201	10240507.0
1635.0701	10277590.0
1635.3201	10191330.0
1635.5701	10235899.0
1635.8201	10162856.0
1636.0701	10211605.0
1636.3201	9512733.0
1636.5701	9317045.0
1636.8201	9973205.0
1637.0701	10114034.0
1637.3201	10095322.0
1637.5701	10042468.0
1637.8201	10005816.0
1638.0701	8206661.5
1638.3201	9675930.0
1638.57	9846757.0
1638.82	9893468.0
1639.07	9816958.0
1639.32	9405857.0
1639.57	9590875.0
1639.82	9208603.0
1640.07	9656549.0
1640.32	9552869.0
1640.57	9248264.0
1640.82	9333222.0
1641.07	9515665.0
1641.32	9332530.0
1641.57	9614429.0
1641.82	9605310.0
1642.07	9772557.0
1642.32	9873633.0
1642.57	9876429.0
1642.82	9922791.0
1643.07	9947360.0
1643.32	9922448.0
1643.57	9307507.0
1643.82	9963977.0
1644.07	9892858.0
1644.32	9826543.0
1644.57	9136620.0
1644.82	9970728.0
1645.07	9973365.0
1645.32	9952935.0
1645.57	9822745.0
1645.82	10063776.0
1646.07	10022823.0
1646.32	10001672.0
1646.57	9761939.0
1646.82	9902883.0
1647.07	9794937.0
1647.32	9759091.0
1647.57	9986711.0
1647.82	10015135.0
1648.07	9895902.0
1648.32	9974274.0
1648.57	9082586.0
1648.82	9885216.0
1649.07	9917724.0
1649.32	9835581.0
1649.57	9944384.0
1649.82	9999417.0
1650.07	10024075.0
1650.32	9998671.0
1650.57	9600131.0
1650.82	10018070.0
1651.07	10011051.0
1651.32	9995358.0
1651.57	9972488.0
1651.82	9894816.0
1652.07	9883288.0
1652.32	9610109.0
1652.57	9767505.0
1652.82	9985258.0
1653.07	9974756.0
1653.32	9932686.0
1653.57	9790158.0
1653.82	9485652.0
1654.07	9829195.0
1654.32	9626371.0
1654.57	9767658.0
1654.82	9732751.0
1655.07	9631306.0
1655.32	9803483.0
1655.57	9764596.0
1655.82	9889618.0
1656.07	9120999.0
1656.32	9830036.0
1656.57	9909505.0
1656.82	9861105.0
1657.07	9563487.0
1657.32	9901621.0
1657.57	9812498.0
1657.82	9786963.0
1658.07	9695647.0
1658.32	9859350.0
1658.57	9543449.0
1658.82	9622454.0
1659.07	9739498.0
1659.32	9723571.0
1659.57	9791445.0
1659.82	9792947.0
1660.07	9823846.0
1660.32	9860179.0
1660.57	9787160.0
1660.82	9777680.0
1661.07	9760975.0
1661.32	9572574.0
1661.57	9788920.0
1661.82	9790800.0
1662.07	9455326.0
1662.32	9756850.0
1662.57	9628833.0
1662.82	9779276.0
1663.07	9540277.0
1663.32	9302875.0
1663.57	9640769.0
1663.82	9736061.0
1664.07	9522809.0
1664.32	9718453.0
1664.57	9206661.0
1664.82	9386058.0
1665.07	9554272.0
1665.32	9211519.0
1665.57	9699814.0
1665.82	9688985.0
1666.07	9555871.0
1666.32	9625569.0
1666.57	9233761.0
1666.82	9671065.0
1667.07	9581135.0
1667.32	9255527.0
1667.57	9665500.0
1667.82	9511613.0
1668.07	8825548.0
1668.32	9640455.0
1668.57	9511972.0
1668.82	9652497.0
1669.07	9655444.0
1669.32	9576878.0
1669.57	9615063.0
1669.82	9614973.0
1670.07	9614429.0
1670.32	9587923.0
1670.57	9558128.0
1670.82	9331590.0
1671.07	9525364.0
1671.32	9513498.0
1671.57	9524078.0
1671.82	8324752.5
1672.07	9325220.0
1672.32	9471645.0
1672.57	9303782.0
1672.82	9481124.0
1673.07	9502339.0
1673.32	9522676.0
1673.57	9495824.0
1673.82	9365742.0
1674.07	9454332.0
1674.32	9433271.0
1674.57	9452133.0
1674.82	9277158.0
1675.07	7925864.5
1675.32	9170870.0
1675.57	9410975.0
1675.82	9333351.0
1676.07	9270190.0
1676.32	8747271.0
1676.57	9349977.0
1676.82	9343372.0
1677.07	9327142.0
1677.32	9303374.0
1677.57	9220885.0
1677.82	9152151.0
1678.07	9179000.0
1678.32	9129383.0
1678.57	9081583.0
1678.82	9103426.0
1679.07	9047725.0
1679.32	8817829.0
1679.57	8896012.0
1679.82	8835723.0
1680.07	8676946.0
1680.32	8560649.0
1680.57	8441322.0
1680.82	8438316.0
1681.07	8601496.0
1681.32	8727733.0
1681.57	8715505.0
1681.82	8518887.0
1682.07	8879821.0
1682.32	8538851.0
1682.57	9043187.0
1682.82	8800294.0
1683.07	9111323.0
1683.32	9033687.0
1683.57	9114505.0
1683.82	9123894.0
1684.07	9171207.0
1684.32	9080793.0
1684.57	9158916.0
1684.82	9212875.0
1685.07	9199867.0
1685.32	9193318.0
1685.57	9082581.0
1685.82	8742592.0
1686.07	9198047.0
1686.32	9173953.0
1686.57	9134665.0
1686.82	9013424.0
1687.07	9090633.0
1687.32	9123636.0
1687.57	9108810.0
1687.82	9152469.0
1688.07	9133966.0
1688.32	9195209.0
1688.57	9186599.0
1688.82	9130963.0
1689.07	8123431.5
1689.32	9096338.0
1689.57	9150225.0
1689.82	9202044.0
1690.07	9145422.0
1690.32	8531623.0
1690.57	9132150.0
1690.82	9204128.0
1691.07	9190213.0
1691.32	9188590.0
1691.57	9172404.0
1691.82	9194202.0
1692.07	9194439.0
1692.32	9177012.0
1692.57	9164776.0
1692.82	8970908.0
1693.07	9161742.0
1693.32	9129242.0
1693.57	9155160.0
1693.82	9164468.0
1694.07	9164746.0
1694.32	9161943.0
1694.57	9125405.0
1694.82	9109192.0
1695.07	9127666.0
1695.32	9093277.0
1695.57	9106071.0
1695.82	8960257.0
1696.07	9111523.0
1696.32	9110572.0
1696.57	8964890.0
1696.82	9068039.0
1697.07	8654582.0
1697.32	9056962.0
1697.57	8969184.0
1697.82	9059430.0
1698.07	8960727.0
1698.32	8947624.0
1698.57	8842300.0
1698.82	8942546.0
1699.07	9025663.0
1699.32	8809398.0
1699.57	8485682.0
1699.82	9014945.0
1700.07	8715647.0
1700.32	9011965.0
1700.57	8363350.5
1700.82	8689990.0
1701.07	8531309.0
1701.32	8911756.0
1701.57	8991125.0
1701.82	8922159.0
1702.07	8737862.0
1702.32	8976338.0
1702.57	8914235.0
1702.82	8905715.0
1703.07	8961572.0
1703.32	8812101.0
1703.57	8953691.0
1703.82	8950820.0
1704.07	8965973.0
1704.32	8934187.0
1704.57	8968522.0
1704.82	8817786.0
1705.07	8950809.0
1705.32	8915457.0
1705.57	8945994.0
1705.82	8845911.0
1706.07	8948130.0
1706.32	8849421.0
1706.57	8493806.0
1706.82	8897135.0
1707.07	8844982.0
1707.32	8804463.0
1707.57	8867507.0
1707.82	8821886.0
1708.07	8887903.0
1708.32	8882121.0
1708.57	8557959.0
1708.82	8846141.0
1709.07	8507594.0
1709.32	8766069.0
1709.57	8853131.0
1709.82	8781872.0
1710.07	8832664.0
1710.32	8770443.0
1710.57	8543546.0
1710.82	6469840.0
1711.07	8193723.0
1711.32	8657311.0
1711.57	8801103.0
1711.82	8694358.0
1712.07	8685287.0
1712.32	8831241.0
1712.57	8731803.0
1712.82	8822009.0
1713.07	8691986.0
1713.32	8746963.0
1713.57	8804781.0
1713.82	8678514.0
1714.07	8787363.0
1714.32	8807143.0
1714.57	8803143.0
1714.82	8755034.0
1715.07	8695216.0
1715.32	8729771.0
1715.57	8755093.0
1715.82	8748125.0
1716.07	8180630.5
1716.32	8750712.0
1716.57	8742010.0
1716.82	8691197.0
1717.07	8723821.0
1717.32	8727026.0
1717.57	8675623.0
1717.82	8694571.0
1718.07	8703737.0
1718.32	8638903.0
1718.57	8718077.0
1718.82	8620089.0
1719.07	8695393.0
1719.32	8588363.0
1719.57	8623803.0
1719.82	8631168.0
1720.07	8638806.0
1720.32	8390310.0
1720.57	8387450.5
1720.82	8621290.0
1721.07	8671800.0
1721.32	8646294.0
1721.57	8542865.0
1721.82	8541426.0
1722.07	8607573.0
1722.32	8578787.0
1722.57	7530355.0
1722.82	8553391.0
1723.07	8422812.0
1723.32	8217375.0
1723.57	8398476.0
1723.82	8560212.0
1724.07	8419664.0
1724.32	8539969.0
1724.57	8524850.0
1724.82	8560095.0
1725.07	8485292.0
1725.32	8322218.0
1725.57	8544567.0
1725.82	8518607.0
1726.07	8560619.0
1726.32	8526423.0
1726.57	8490562.0
1726.82	8403913.0
1727.07	8500030.0
1727.32	8361991.0
1727.57	7990539.0
1727.82	8339112.5
1728.07	8421606.0
1728.32	8350574.5
1728.57	8448922.0
1728.82	8356931.0
1729.07	8466834.0
1729.32	8403420.0
1729.57	8434362.0
1729.82	8441681.0
1730.07	8301277.5
1730.32	8006634.0
1730.57	8329310.5
1730.82	8364147.0
1731.07	8355225.5
1731.32	8343677.5
1731.57	8345870.5
1731.82	8337785.0
1732.07	8302092.5
1732.32	7849466.5
1732.57	7817271.5
1732.82	7149864.0
1733.07	8057074.0
1733.32	8149699.5
1733.57	8112910.5
1733.82	7111878.0
1734.07	8033757.5
1734.32	8046928.0
1734.57	7998580.0
1734.82	7935582.5
1735.07	7829807.0
1735.32	7773515.5
1735.57	7636606.5
1735.82	7476785.0
1736.07	7243019.0
1736.32	7237657.5
1736.57	7457442.0
1736.82	7642715.5
1737.07	7754712.5
1737.32	7777972.5
1737.57	7856051.0
1737.82	7959505.0
1738.07	7945385.0
1738.32	8025131.5
1738.57	7949924.5
1738.82	8067675.0
1739.07	8015111.0
1739.32	7889799.5
1739.57	8125724.5
1739.82	8157041.0
1740.07	8029044.5
1740.32	8118155.5
1740.57	8029171.0
1740.82	7259688.0
1741.07	8065893.5
1741.32	8192958.0
1741.57	8139076.5
1741.82	8068853.5
1742.07	8135090.0
1742.32	8126788.0
1742.57	8152520.0
1742.82	7899322.0
1743.07	8192270.0
1743.32	8154567.0
1743.57	8152822.0
1743.82	8220417.5
1744.07	8223218.0
1744.32	8223803.5
1744.57	8199795.0
1744.82	7602525.5
1745.07	8070973.5
1745.32	8126161.0
1745.57	7681141.5
1745.82	8091058.5
1746.07	8162985.0
1746.32	8198063.5
1746.57	7546753.0
1746.82	7622178.5
1747.07	8016384.5
1747.32	8190062.0
1747.57	7949912.5
1747.82	8169113.5
1748.07	8172980.5
1748.32	8162055.0
1748.57	8148371.5
1748.82	8174756.0
1749.07	8157967.5
1749.32	8121696.0
1749.57	8095417.0
1749.82	8151998.5
1750.07	7919791.5
1750.32	8091394.0
1750.57	7458422.0
1750.82	8062000.5
1751.07	8096399.0
1751.32	8051187.0
1751.57	8127560.5
1751.82	8097061.5
1752.07	7956691.5
1752.32	8064346.0
1752.57	7973109.5
1752.82	8116821.5
1753.07	8106700.5
1753.32	8094698.5
1753.57	8078571.5
1753.82	8025165.5
1754.07	8061757.5
1754.32	8081849.5
1754.57	7749687.0
1754.82	8033446.5
1755.07	7966587.0
1755.32	7920656.5
1755.57	7939580.0
1755.82	8030599.5
1756.07	8038744.5
1756.32	7997042.5
1756.57	7870889.0
1756.82	8060951.0
1757.07	8016413.0
1757.32	8049370.5
1757.57	7999379.5
1757.82	8031885.0
1758.07	7958280.5
1758.32	7993053.0
1758.57	7838784.0
1758.82	8011447.0
1759.07	8026225.5
1759.32	7995938.0
1759.57	8012166.0
1759.82	7873574.5
1760.07	7951261.0
1760.32	7911170.5
1760.57	7541523.5
1760.82	7863899.5
1761.07	7873390.0
1761.32	7911142.5
1761.57	7489304.0
1761.82	7518421.5
1762.07	7933212.5
1762.32	7563169.0
1762.57	7927178.5
1762.82	7962442.0
1763.07	7963102.5
1763.32	7907886.5
1763.57	7868469.0
1763.82	7307150.5
1764.07	7564550.0
1764.32	7662916.5
1764.57	7848197.0
1764.82	7936694.5
1765.07	7940013.5
1765.32	7909898.0
1765.57	7809005.5
1765.82	7824350.5
1766.07	7897754.0
1766.32	7537026.0
1766.57	7903216.0
1766.82	7902500.0
1767.07	7766383.0
1767.32	7601328.0
1767.57	7698464.5
1767.82	7658002.5
1768.07	7283208.5
1768.32	7752810.0
1768.57	7788686.0
1768.82	7832568.0
1769.07	7788791.0
1769.32	7818000.0
1769.57	7621136.5
1769.82	7792502.0
1770.07	7840857.5
1770.32	7736853.0
1770.57	7737901.5
1770.82	7448562.5
1771.07	7756519.5
1771.32	7771149.0
1771.57	7777269.5
1771.82	7611152.5
1772.07	7057472.5
1772.32	7712860.5
1772.57	7797528.0
1772.82	7627986.5
1773.07	7754371.5
1773.32	7725990.0
1773.57	7623494.5
1773.82	7756662.5
1774.07	7689069.5
1774.32	7673977.5
1774.57	7716811.5
1774.82	7674801.0
1775.07	7661427.0
1775.32	7510761.0
1775.57	7719606.0
1775.82	7641132.0
1776.07	7500889.0
1776.32	7489812.0
1776.57	7719312.0
1776.82	7388339.5
1777.07	7219089.5
1777.32	7657778.5
1777.57	7641436.0
1777.82	7688891.0
1778.07	7661805.0
1778.32	7520063.0
1778.57	7629085.5
1778.82	7603557.5
1779.07	7459154.5
1779.32	7626737.5
1779.57	7674244.5
1779.82	7646687.0
1780.07	7567037.5
1780.32	7635944.5
1780.57	7668470.5
1780.82	7656023.5
1781.07	7606512.5
1781.32	7313040.5
1781.57	7621790.0
1781.82	7602773.0
1782.07	7627589.0
1782.32	7434276.0
1782.57	7492011.0
1782.82	7602156.5
1783.07	7614524.0
1783.32	7582098.5
1783.57	7440322.0
1783.82	7457600.5
1784.07	7522554.0
1784.32	7455602.0
1784.57	7301623.0
1784.82	7534129.5
1785.07	7579895.5
1785.32	7333549.5
1785.57	7502241.0
1785.82	7472307.0
1786.07	7422429.5
1786.32	7484773.0
1786.57	7545578.5
1786.82	7597230.0
1787.07	7447894.5
1787.32	7474434.5
1787.57	7530876.5
1787.82	7560678.5
1788.07	7534681.5
1788.32	7550698.0
1788.57	7561948.5
1788.82	7544971.5
1789.07	7493296.5
1789.32	7510368.5
1789.57	7548846.5
1789.82	7521329.5
1790.07	7537858.5
1790.32	7505857.5
1790.57	7522353.5
1790.82	7459882.0
1791.07	7452882.0
1791.32	7516590.0
1791.57	7452205.5
1791.82	7412072.5
1792.07	7502528.0
1792.32	7418324.5
1792.57	7448745.0
1792.82	7430714.5
1793.07	7029804.0
1793.32	7345095.5
1793.57	7349727.5
1793.82	7038276.5
1794.07	7320594.0
1794.32	7481036.5
1794.57	7468227.5
1794.82	7454636.5
1795.07	7422349.5
1795.32	7457079.5
1795.57	7386841.5
1795.82	7433365.5
1796.07	7439982.0
1796.32	7423047.5
1796.57	7280134.0
1796.82	7379810.0
1797.07	7327563.0
1797.32	7407499.0
1797.57	7408433.5
1797.82	7401433.5
1798.07	7295749.5
1798.32	7285648.0
1798.57	7362678.5
1798.82	7379782.0
1799.07	7379416.5
1799.32	7313497.5
1799.57	7334458.5
1799.82	7355002.0
1800.07	7270904.0
1800.32	7268753.5
1800.57	7196317.0
1800.82	7364126.0
1801.07	7345089.0
1801.32	7331160.0
1801.57	7246658.0
1801.82	7330718.0
1802.07	7080861.0
1802.32	7230117.0
1802.57	7286881.0
1802.82	7144159.0
1803.07	6952654.0
1803.32	7286141.0
1803.57	7265320.5
1803.82	7259986.0
1804.07	7323544.0
1804.32	7232413.5
1804.57	7309530.5
1804.82	7294017.0
1805.07	7104994.5
1805.32	7121898.5
1805.57	7273428.0
1805.82	7292356.5
1806.07	7150736.5
1806.32	7157725.5
1806.57	7174230.0
1806.82	7179720.5
1807.07	7253355.0
1807.32	7194306.5
1807.57	7228718.5
1807.82	7207544.0
1808.07	6854477.5
1808.32	7210786.5
1808.57	7229842.0
1808.82	7171543.5
1809.07	7044459.0
1809.32	7151203.0
1809.57	7070169.0
1809.82	6898731.5
1810.07	7119784.5
1810.32	7082867.0
1810.57	7051189.0
1810.82	7012366.0
1811.07	7053365.5
1811.32	7106697.0
1811.57	7127859.5
1811.82	6969948.5
1812.07	7112136.0
1812.32	7085812.5
1812.57	7093537.0
1812.82	7047777.0
1813.07	7055908.5
1813.32	7066234.5
1813.57	7046621.0
1813.82	6923114.0
1814.07	6935105.5
1814.32	6922769.5
1814.57	6957675.5
1814.82	6911861.0
1815.07	6896663.0
1815.32	6628356.5
1815.57	6471080.5
1815.82	6657539.0
1816.07	6687384.5
1816.32	6621007.5
1816.57	6529105.0
1816.82	6373735.5
1817.07	6147094.5
1817.32	5866523.5
1817.57	5998089.0
1817.82	6258142.0
1818.07	6370813.0
1818.32	6557622.5
1818.57	6638867.5
1818.82	6677393.0
1819.07	6664879.0
1819.32	6793464.5
1819.57	6805452.0
1819.82	6838481.0
1820.07	6840440.5
1820.32	6883379.0
1820.57	6900125.5
1820.82	6921057.0
1821.07	6930648.0
1821.32	6930720.0
1821.57	6916865.5
1821.82	6943965.5
1822.07	6430838.5
1822.32	6606818.5
1822.57	6892131.0
1822.82	6898999.0
1823.07	6847171.0
1823.32	6973343.5
1823.57	6991199.5
1823.82	6931165.0
1824.07	6998807.5
1824.32	6871007.0
1824.57	6999751.5
1824.82	6905737.5
1825.07	6928949.5
1825.32	6999060.5
1825.57	6998033.0
1825.82	6949872.0
1826.07	6995198.0
1826.32	6960811.0
1826.57	6987073.0
1826.82	6983922.5
1827.07	6945906.0
1827.32	6918252.0
1827.57	6898570.0
1827.82	6982068.0
1828.07	6953144.5
1828.32	6626918.5
1828.57	6725745.0
1828.82	6955552.0
1829.07	6950455.0
1829.32	6952376.0
1829.57	6868278.0
1829.82	6884589.5
1830.07	6853863.0
1830.32	6902390.0
1830.57	6928250.5
1830.82	6941871.5
1831.07	6937705.5
1831.32	6937708.5
1831.57	6809472.5
1831.82	6908540.5
1832.07	6442655.0
1832.32	6907490.0
1832.57	6909788.5
1832.82	6936667.5
1833.07	6906911.5
1833.32	6928209.5
1833.57	6915187.5
1833.82	6828141.0
1834.07	6784495.0
1834.32	6884494.5
1834.57	6851820.0
1834.82	6881053.5
1835.07	6815982.0
1835.32	6785985.5
1835.57	6824046.5
1835.82	6808232.0
1836.07	6753339.5
1836.32	6868935.5
1836.57	6679805.0
1836.82	6774496.0
1837.07	6829186.5
1837.32	6341628.5
1837.57	6456357.0
1837.82	6777609.5
1838.07	6798987.0
1838.32	6856759.5
1838.57	6840191.5
1838.82	6760131.0
1839.07	6833924.0
1839.32	6684908.5
1839.57	6646399.5
1839.82	6690704.5
1840.07	6822734.5
1840.32	6825334.0
1840.57	6702434.5
1840.82	6755596.5
1841.07	6790869.0
1841.32	6506589.5
1841.57	6535716.5
1841.82	6578879.0
1842.07	6713975.0
1842.32	6020865.0
1842.57	6768950.5
1842.82	6635993.5
1843.07	6622524.5
1843.32	6674994.5
1843.57	6764863.0
1843.82	6709477.5
1844.07	6711923.0
1844.32	6642740.0
1844.57	6579910.0
1844.82	6631989.0
1845.07	6765043.5
1845.32	6747877.0
1845.57	6753452.5
1845.82	6728791.5
1846.07	6732471.5
1846.32	6597756.5
1846.57	5550654.5
1846.82	6656046.0
1847.07	6548281.5
1847.32	6508993.5
1847.57	6724829.0
1847.82	6640380.0
1848.07	6717289.5
1848.32	6711586.0
1848.57	6702097.5
1848.82	6689572.0
1849.07	6633523.0
1849.32	6683812.0
1849.57	6576588.5
1849.82	6690632.0
1850.07	6686094.5
1850.32	6677720.5
1850.57	6691250.5
1850.82	6643472.5
1851.07	6633964.0
1851.32	6669791.5
1851.57	6627760.5
1851.82	6538068.0
1852.07	6479264.5
1852.32	6551882.0
1852.57	6271113.5
1852.82	6594780.5
1853.07	6597578.0
1853.32	6643366.0
1853.57	6626348.5
1853.82	6620108.5
1854.07	6637143.0
1854.32	6596199.0
1854.57	6611554.5
1854.82	6412224.0
1855.07	6609553.5
1855.32	5932732.0
1855.57	6269029.0
1855.82	6543898.5
1856.07	6595722.0
1856.32	6607854.0
1856.57	6605075.5
1856.82	6599322.0
1857.07	6604062.0
1857.32	6592400.5
1857.57	6341461.0
1857.82	6569713.5
1858.07	6395492.5
1858.32	6300371.5
1858.57	6488551.0
1858.82	6582674.5
1859.07	6583088.0
1859.32	6551155.5
1859.57	6431236.0
1859.82	6556238.5
1860.07	6535787.5
1860.32	6544272.5
1860.57	6535045.5
1860.82	6466523.0
1861.07	6395483.5
1861.32	6510387.0
1861.57	6487530.5
1861.82	6521207.0
1862.07	6433194.5
1862.32	6396572.0
1862.57	6403670.5
1862.82	6415592.5
1863.07	6490756.5
1863.32	6481057.0
1863.57	6498712.0
1863.82	6313822.0
1864.07	6478774.5
1864.32	6505116.0
1864.57	6499575.5
1864.82	6450984.0
1865.07	6466648.0
1865.32	6264244.0
1865.57	6429274.0
1865.82	6139357.0
1866.07	6417737.0
1866.32	6269006.0
1866.57	6435070.0
1866.82	6440720.5
1867.07	6436166.0
1867.32	6416398.0
1867.57	6259228.0
1867.82	6412721.5
1868.07	6312581.0
1868.32	6370898.0
1868.57	6405553.0
1868.82	6378422.5
1869.07	6386611.5
1869.32	6343861.5
1869.57	6283723.5
1869.82	6369636.5
1870.07	6333318.0
1870.32	6309201.5
1870.57	6339756.0
1870.82	6314373.5
1871.07	6289015.0
1871.32	6120060.0
1871.57	6272311.0
1871.82	6254979.5
1872.07	6136657.0
1872.32	5547667.0
1872.57	6127670.5
1872.82	6140572.5
1873.07	6086318.5
1873.32	6050053.0
1873.57	5897973.5
1873.82	5914418.5
1874.07	5820826.5
1874.32	5652784.5
1874.57	5495308.0
1874.82	5170588.0
1875.07	4103149.8
1875.32	5032974.0
1875.57	5457391.0
1875.82	5659634.0
1876.07	5744744.5
1876.32	5884169.5
1876.57	5950901.0
1876.82	6006468.0
1877.07	6012837.0
1877.32	5592403.0
1877.57	6077438.5
1877.82	6126166.5
1878.07	6155280.0
1878.32	6136359.5
1878.57	6169227.5
1878.82	6158326.0
1879.07	6097276.5
1879.32	6180759.0
1879.57	6222358.5
1879.82	6207919.0
1880.07	6224228.5
1880.32	6224845.0
1880.57	6243940.0
1880.82	6231979.5
1881.07	6248744.0
1881.32	6239184.0
1881.57	6237209.5
1881.82	6119270.5
1882.07	6069248.5
1882.32	6241251.0
1882.57	6260716.5
1882.82	6225621.0
1883.07	6246096.5
1883.32	6228293.0
1883.57	6242786.5
1883.82	6217600.5
1884.07	6238933.0
1884.32	6063077.0
1884.57	6008572.5
1884.82	6186696.0
1885.07	6061840.5
1885.32	6213975.0
1885.57	5622888.0
1885.82	6169983.0
1886.07	6110532.5
1886.32	6166391.0
1886.57	6226088.0
1886.82	6180011.5
1887.07	6201894.0
1887.32	6089213.5
1887.57	6067906.5
1887.82	6010050.5
1888.07	6194118.5
1888.32	6024022.5
1888.57	5815089.0
1888.82	6096633.0
1889.07	6165048.5
1889.32	6078345.0
1889.57	6094527.0
1889.82	5370829.0
1890.07	6066547.0
1890.32	6187160.0
1890.57	5873381.0
1890.82	6154198.0
1891.07	6153629.5
1891.32	5928213.5
1891.57	5972765.0
1891.82	6114804.5
1892.07	5717921.5
1892.32	6025709.5
1892.57	5645396.5
1892.82	5757361.0
1893.07	6053656.0
1893.32	6138288.5
1893.57	6051677.5
1893.82	6112806.5
1894.07	6073968.0
1894.32	5749977.0
1894.57	5984313.5
1894.82	6086739.0
1895.07	5983667.0
1895.32	6117416.5
1895.57	5971676.0
1895.82	5742591.5
1896.07	6070063.0
1896.32	5932128.0
1896.57	5973992.5
1896.82	6094468.5
1897.07	5872840.5
1897.32	6004793.0
1897.57	6096951.5
1897.82	6060212.0
1898.07	6093894.0
1898.32	6098021.5
1898.57	5853782.5
1898.82	5769914.0
1899.07	6096180.0
1899.32	6103194.0
1899.57	6067451.5
1899.82	6090546.5
1900.07	6054483.5
1900.32	5956181.5
1900.57	5980754.0
1900.82	6055615.0
1901.07	6039596.0
1901.32	6050038.5
1901.57	6064076.5
1901.82	6039712.0
1902.07	6026165.0
1902.32	6051728.5
1902.57	6056462.5
1902.82	6016635.0
1903.07	5571599.5
1903.32	6037908.0
1903.57	6021730.0
1903.82	6041069.0
1904.07	6020336.0
1904.32	5936218.5
1904.57	5763766.0
1904.82	6015262.0
1905.07	5956388.5
1905.32	6018208.0
1905.57	6024284.0
1905.82	5954448.0
1906.07	5976864.0
1906.32	6016391.0
1906.57	6008790.5
1906.82	6014427.5
1907.07	5980286.0
1907.32	5990487.5
1907.57	5984768.5
1907.82	5886255.5
1908.07	5849301.0
1908.32	5849244.0
1908.57	5949440.0
1908.82	5990420.5
1909.07	5985074.5
1909.32	5983065.5
1909.57	5941659.5
1909.82	5984822.0
1910.07	5958982.5
1910.32	5868639.5
1910.57	5952520.0
1910.82	5963851.0
1911.07	5917290.0
1911.32	5480628.0
1911.57	5924352.5
1911.82	5957785.5
1912.07	5705554.5
1912.32	5842809.0
1912.57	5942505.5
1912.82	5917311.5
1913.07	5905603.5
1913.32	5916225.5
1913.57	5932715.0
1913.82	5902408.5
1914.07	5737982.0
1914.32	5901252.5
1914.57	5923701.0
1914.82	5873266.5
1915.07	5917865.0
1915.32	5821138.0
1915.57	5846954.5
1915.82	5811820.0
1916.07	5837046.5
1916.32	5886331.5
1916.57	5892695.0
1916.82	5881527.0
1917.07	5851964.5
1917.32	5830259.5
1917.57	5835106.0
1917.82	5875350.0
1918.07	5868455.5
1918.32	5870212.5
1918.57	5861049.0
1918.82	5859825.0
1919.07	5831718.5
1919.32	5182968.0
1919.57	5548611.0
1919.82	5830948.5
1920.07	5819178.5
1920.32	5771909.5
1920.57	5854046.0
1920.82	5767026.0
1921.07	5845522.5
1921.32	5601967.0
1921.57	5735493.5
1921.82	5811573.5
1922.07	5789685.0
1922.32	5834895.0
1922.57	5834066.0
1922.82	5793646.0
1923.07	5821283.5
1923.32	5799002.5
1923.57	5811843.5
1923.82	5772872.5
1924.07	5803137.5
1924.32	5816069.0
1924.57	5691667.0
1924.82	5796146.0
1925.07	5739486.5
1925.32	5780332.5
1925.57	5747895.0
1925.82	5552920.5
1926.07	5712919.0
1926.32	5792779.5
1926.57	5670099.5
1926.82	5565628.0
1927.07	5774994.0
1927.32	5755846.0
1927.57	5749422.0
1927.82	5728333.5
1928.07	5710597.5
1928.32	5327178.5
1928.57	5682986.5
1928.82	5761106.0
1929.07	5751927.0
1929.32	5748781.0
1929.57	5751946.0
1929.82	5708775.0
1930.07	5730310.0
1930.32	5653848.0
1930.57	5681538.5
1930.82	5217401.0
1931.07	5617460.5
1931.32	5727642.0
1931.57	5706768.5
1931.82	5692267.5
1932.07	5689156.0
1932.32	5720584.5
1932.57	5688962.0
1932.82	5711173.0
1933.07	5704889.0
1933.32	5635928.0
1933.57	5536971.0
1933.82	5672136.0
1934.07	5280872.5
1934.32	5676031.5
1934.57	5646665.0
1934.82	5677238.0
1935.07	5654461.0
1935.32	5657612.5
1935.57	5646676.0
1935.82	5675340.5
1936.07	5667229.5
1936.32	5641201.5
1936.57	5630298.0
1936.82	5646331.0
1937.07	5648509.0
1937.32	5640179.0
1937.57	5625753.0
1937.82	5574761.5
1938.07	5625439.0
1938.32	5612609.5
1938.57	5190589.5
1938.82	5589082.0
1939.07	5588183.0
1939.32	5399993.5
1939.57	5553179.5
1939.82	5556988.5
1940.07	5548358.0
1940.32	5360792.0
1940.57	5532448.0
1940.82	5502117.5
1941.07	5420807.0
1941.32	5478169.5
1941.57	5454957.0
1941.82	5441870.5
1942.07	5416701.5
1942.32	5381493.5
1942.57	5126197.5
1942.82	5315630.5
1943.07	5122556.0
1943.32	4760357.5
1943.57	5138946.0
1943.82	5062830.5
1944.07	4923727.5
1944.32	4676619.5
1944.57	4435195.0
1944.82	4754214.5
1945.07	4936011.5
1945.32	4548057.5
1945.57	5151960.5
1945.82	5209336.0
1946.07	5254057.0
1946.32	5224352.0
1946.57	5326792.0
1946.82	5329671.5
1947.07	5163097.0
1947.32	5392521.0
1947.57	5378908.5
1947.82	5418304.0
1948.07	5395012.5
1948.32	5245830.0
1948.57	5372572.0
1948.82	5457796.0
1949.07	5342392.0
1949.32	4958636.5
1949.57	5459191.0
1949.82	5468896.5
1950.07	5469344.5
1950.32	5466571.0
1950.57	4660294.5
1950.82	4899835.0
1951.07	5424508.5
1951.32	5484914.0
1951.57	5475696.0
1951.82	5489372.5
1952.07	5490239.5
1952.32	5484989.0
1952.57	5495079.5
1952.82	5489853.5
1953.07	5476220.5
1953.32	5322288.5
1953.57	5477140.5
1953.82	5475386.0
1954.07	5222361.5
1954.32	5451932.0
1954.57	5483350.0
1954.82	5459157.5
1955.07	5479011.0
1955.32	5474437.0
1955.57	5463939.0
1955.82	5476892.0
1956.07	5465751.5
1956.32	5458519.0
1956.57	5461337.5
1956.82	5431281.0
1957.07	5460798.0
1957.32	5431434.0
1957.57	5455640.0
1957.82	5429531.5
1958.07	5397140.0
1958.32	5305564.5
1958.57	5420439.5
1958.82	5364719.0
1959.07	5408113.5
1959.32	5322657.0
1959.57	5405472.0
1959.82	5229532.5
1960.07	5399839.0
1960.32	5413900.0
1960.57	5430892.0
1960.82	5421243.5
1961.07	5414671.0
1961.32	5081533.5
1961.57	5342637.5
1961.82	5422198.5
1962.07	5417671.5
1962.32	5339069.5
1962.57	4940678.0
1962.82	5384389.5
1963.07	5291910.5
1963.32	5376048.5
1963.57	5194083.0
1963.82	5320769.0
1964.07	5370649.5
1964.32	5396322.0
1964.57	5398284.0
1964.82	5393461.5
1965.07	5389338.5
1965.32	5393042.5
1965.57	5391856.5
1965.82	5365614.0
1966.07	5378090.0
1966.32	5381657.0
1966.57	5370083.5
1966.82	5367033.5
1967.07	5362335.0
1967.32	5370408.5
1967.57	5323017.0
1967.82	5369233.5
1968.07	5357210.5
1968.32	5353114.0
1968.57	5310787.5
1968.82	5335332.0
1969.07	5346369.5
1969.32	5352906.5
1969.57	5333532.5
1969.82	5343337.0
1970.07	5337883.0
1970.32	5333063.0
1970.57	5336067.5
1970.82	5328726.5
1971.07	5304169.5
1971.32	5313464.0
1971.57	5318682.5
1971.82	5197943.5
1972.07	5132523.0
1972.32	4468774.0
1972.57	5287809.0
1972.82	5297889.0
1973.07	5302545.5
1973.32	4937097.5
1973.57	5237484.0
1973.82	5270145.0
1974.07	5296142.0
1974.32	5282683.5
1974.57	5281672.5
1974.82	5289996.0
1975.07	5258009.0
1975.32	5277670.5
1975.57	5289502.0
1975.82	5283839.0
1976.07	5229481.0
1976.32	5259758.5
1976.57	5280581.0
1976.82	5271841.0
1977.07	5267996.0
1977.32	5266197.5
1977.57	4635052.5
1977.82	4905448.0
1978.07	5235570.5
1978.32	5257551.0
1978.57	5215175.0
1978.82	5246191.5
1979.07	5017502.5
1979.32	5162190.0
1979.57	5238399.5
1979.82	5241487.0
1980.07	5234010.5
1980.32	5238161.5
1980.57	5227165.5
1980.82	5239548.0
1981.07	5236602.5
1981.32	5220537.0
1981.57	5110703.0
1981.82	5218889.0
1982.07	5221678.0
1982.32	5229650.0
1982.57	5219357.0
1982.82	5220270.0
1983.07	5219910.0
1983.32	5204262.5
1983.57	5220266.5
1983.82	5214994.0
1984.07	5209198.5
1984.32	5209334.0
1984.57	4930332.0
1984.82	5163105.0
1985.07	5185661.0
1985.32	4675466.5
1985.57	4971394.5
1985.82	5179421.5
1986.07	5123113.0
1986.32	4740462.0
1986.57	5172031.5
1986.82	5174766.5
1987.07	5162896.0
1987.32	5133658.5
1987.57	5120463.0
1987.82	5179358.5
1988.07	5108722.5
1988.32	5166705.0
1988.57	5168587.5
1988.82	5168130.0
1989.07	5163150.0
1989.32	5146611.0
1989.57	5158790.0
1989.82	5160295.0
1990.07	5151056.5
1990.32	5124154.5
1990.57	5122155.5
1990.82	5121817.0
1991.07	5136179.5
1991.32	5118150.5
1991.57	5115038.5
1991.82	4989145.0
1992.07	5131380.0
1992.32	5065740.5
1992.57	5116447.5
1992.82	4774426.5
1993.07	5111467.5
1993.32	4698120.0
1993.57	5101779.0
1993.82	5112294.5
1994.07	5099731.5
1994.32	5088841.5
1994.57	5100212.0
1994.82	5045541.5
1995.07	5074516.0
1995.32	5094278.0
1995.57	5083838.5
1995.82	5097629.5
1996.07	4881420.5
1996.32	5002125.0
1996.57	5043883.0
1996.82	5077146.5
1997.07	4806367.0
1997.32	4788167.0
1997.57	5011586.5
1997.82	5056496.5
1998.07	5057344.0
1998.32	5072738.5
1998.57	5081403.5
1998.82	5070879.0
1999.07	5062048.0
1999.32	5053716.5
1999.57	5061732.0
1999.82	5060972.5
2000.07	5045848.0
2000.32	5053828.0
2000.57	5056866.5
2000.82	4984708.0
2001.07	5042515.0
2001.32	5040376.5
2001.57	5050243.5
2001.82	5045226.5
2002.07	5008282.5
2002.32	4757892.0
2002.57	4996577.0
2002.82	5019282.0
2003.07	5001000.0
2003.32	5010160.5
2003.57	4845681.0
2003.82	4971814.0
2004.07	5012195.5
2004.32	4992199.0
2004.57	5013979.0
2004.82	5016107.5
2005.07	4703041.5
2005.32	4860815.5
2005.57	4932196.0
2005.82	5001930.0
2006.07	4994238.0
2006.32	5003145.5
2006.57	4991220.0
2006.82	4958585.5
2007.07	4836625.5
2007.32	4995606.0
2007.57	4994975.5
2007.82	4980496.5
2008.07	4926432.5
2008.32	4957315.5
2008.57	4967396.5
2008.82	4963801.0
2009.07	4910597.0
2009.32	4849399.5
2009.57	4933422.0
2009.82	4959080.5
2010.07	4971825.0
2010.32	4961598.5
2010.57	4946057.5
2010.82	4937874.0
2011.07	4947208.0
2011.32	4943219.0
2011.57	4950199.5
2011.82	4949355.5
2012.07	4946705.5
2012.32	4937312.0
2012.57	4894803.0
2012.82	4905813.5
2013.07	4936523.5
2013.32	4930083.0
2013.57	4776582.5
2013.82	4858614.5
2014.07	4914604.5
2014.32	4878315.0
2014.57	4913616.5
2014.82	4908379.0
2015.07	4881822.0
2015.32	4924492.0
2015.57	4911617.5
2015.82	4913825.0
2016.07	4914150.5
2016.32	4903740.5
2016.57	4898278.5
2016.82	4892084.0
2017.07	4886744.0
2017.32	4866161.5
2017.57	4900220.5
2017.82	4892466.5
2018.07	4894188.5
2018.32	4889429.0
2018.57	4870041.0
2018.82	4786987.5
2019.07	4886795.5
2019.32	4862924.0
2019.57	4866345.0
2019.82	4813098.5
2020.07	4869789.0
2020.32	4802015.5
2020.57	4563351.0
2020.82	4628197.0
2021.07	4829725.5
2021.32	4845864.5
2021.57	4850413.5
2021.82	4845555.5
2022.07	4840881.5
2022.32	4828885.5
2022.57	4846263.0
2022.82	4790023.0
2023.07	4695045.0
2023.32	4801603.0
2023.57	4845781.5
2023.82	4814973.0
2024.07	4640558.5
2024.32	4819525.0
2024.57	4830245.0
2024.82	4822653.5
2025.07	4808148.5
2025.32	4832057.5
2025.57	4813616.5
2025.82	4828186.5
2026.07	4827789.0
2026.32	4583401.5
2026.57	4813431.0
2026.82	4718151.5
2027.07	4810672.0
2027.32	4767965.0
2027.57	4772234.0
2027.82	4809664.0
2028.07	4685438.0
2028.32	4769937.0
2028.57	4799117.5
2028.82	4771756.5
2029.07	4748114.0
2029.32	4738771.0
2029.57	4434957.0
2029.82	4751821.0
2030.07	4455812.0
2030.32	4680257.5
2030.57	4774389.0
2030.82	4787255.0
2031.07	4775658.0
2031.32	4773175.0
2031.57	4763359.0
2031.82	4765645.5
2032.07	4764215.0
2032.32	4759684.5
2032.57	4751699.5
2032.82	4723372.0
2033.07	4748517.5
2033.32	4748900.0
2033.57	4751001.5
2033.82	4718240.0
2034.07	4684363.0
2034.32	4402294.5
2034.57	4572488.0
2034.82	4744768.5
2035.07	4621026.0
2035.32	4731413.0
2035.57	4736231.0
2035.82	4744421.5
2036.07	4717726.5
2036.32	4650608.5
2036.57	4714013.5
2036.82	4713366.0
2037.07	4721073.0
2037.32	4633871.0
2037.57	4563929.0
2037.82	4357821.0
2038.07	4651938.5
2038.32	4538978.5
2038.57	4693808.0
2038.82	4700094.0
2039.07	4712949.5
2039.32	4718244.0
2039.57	4685705.0
2039.82	4701562.0
2040.07	4689819.5
2040.32	4562451.0
2040.57	4647465.0
2040.82	4682056.5
2041.07	4507303.5
2041.32	4586022.0
2041.57	4613444.5
2041.82	4669501.5
2042.07	4664097.5
2042.32	4651008.5
2042.57	4672132.5
2042.82	4678756.5
2043.07	4655609.5
2043.32	4685507.0
2043.57	4680181.5
2043.82	4672890.5
2044.07	4669118.0
2044.32	4665669.5
2044.57	4631101.0
2044.82	4645281.5
2045.07	4632903.5
2045.32	4641614.0
2045.57	4651490.0
2045.82	4657515.5
2046.07	4654206.5
2046.32	4647295.0
2046.57	4654878.5
2046.82	4583198.0
2047.07	4648457.5
2047.32	4593411.5
2047.57	4620587.5
2047.82	4635906.0
2048.07	4630359.0
2048.32	4645773.0
2048.57	4632663.0
2048.82	4636653.5
2049.07	4624068.5
2049.32	4625135.5
2049.57	4625065.0
2049.82	4621148.0
2050.07	4622458.0
2050.32	4622665.0
2050.57	4616713.0
2050.82	4610106.0
2051.07	4562577.0
2051.32	4615560.0
2051.57	4587609.5
2051.82	4569635.5
2052.07	4337466.0
2052.32	4493663.5
2052.57	4588361.0
2052.82	4592151.5
2053.07	4574327.5
2053.32	4592457.0
2053.57	4586050.0
2053.82	4457367.0
2054.07	4580350.0
2054.32	4578791.0
2054.57	4575882.5
2054.82	4585547.5
2055.07	4581585.0
2055.32	4538413.0
2055.57	4577483.0
2055.82	4563164.5
2056.07	4574433.5
2056.32	4563395.0
2056.57	4555271.5
2056.82	4526441.5
2057.07	4563698.5
2057.32	4554852.0
2057.57	4554574.5
2057.82	4556948.5
2058.07	4558807.0
2058.32	4523497.5
2058.57	4350479.5
2058.82	4540820.5
2059.07	4552239.5
2059.32	4501270.5
2059.57	4507363.5
2059.82	4426534.5
2060.07	4423162.5
2060.32	4059874.2
2060.57	4499718.0
2060.82	4526495.5
2061.07	4520633.0
2061.32	4530569.0
2061.57	4450448.0
2061.82	4520161.0
2062.07	4515602.0
2062.32	4515400.0
2062.57	4505255.0
2062.82	4401892.5
2063.07	3633192.5
2063.32	4016851.2
2063.57	4472745.0
2063.82	4503361.5
2064.07	4501805.0
2064.32	4462578.0
2064.57	4491502.0
2064.82	4491951.0
2065.07	4489362.0
2065.32	4499360.5
2065.57	4499446.0
2065.82	4482862.5
2066.07	4480596.5
2066.32	4481470.5
2066.57	4399894.0
2066.82	4394101.0
2067.07	4279992.0
2067.32	4293132.0
2067.57	4391726.5
2067.82	4403026.5
2068.07	4437517.5
2068.32	4470686.5
2068.57	4473107.5
2068.82	4450047.0
2069.07	4451044.5
2069.32	4414424.0
2069.57	4447412.0
2069.82	3969854.5
2070.07	4413765.5
2070.32	4430444.0
2070.57	4436644.0
2070.82	4346528.0
2071.07	4434564.0
2071.32	4399557.0
2071.57	4324253.0
2071.82	4376047.0
2072.07	4432821.5
2072.32	4405851.0
2072.57	4443288.5
2072.82	4445253.0
2073.07	4402740.5
2073.32	4387932.5
2073.57	4332460.0
2073.82	4397363.5
2074.07	4418239.5
2074.32	4412434.0
2074.57	4419059.0
2074.82	4408160.5
2075.07	4373477.5
2075.32	4422041.5
2075.57	4344682.0
2075.82	4344354.5
2076.07	4398013.0
2076.32	4252606.5
2076.57	4340015.0
2076.82	4189167.2
2077.07	4192303.2
2077.32	4356877.5
2077.57	4359914.5
2077.82	4388276.5
2078.07	4394162.0
2078.32	4389933.0
2078.57	4392665.0
2078.82	4384644.5
2079.07	4389739.5
2079.32	4377744.5
2079.57	4376100.0
2079.82	4340341.5
2080.07	4291081.5
2080.32	4296249.5
2080.57	4374117.5
2080.82	4378843.5
2081.07	4364530.0
2081.32	4347531.0
2081.57	4372068.5
2081.82	4345710.5
2082.07	4323669.0
2082.32	4332636.0
2082.57	4343840.5
2082.82	4158822.8
2083.07	4325825.5
2083.32	4117765.8
2083.57	4316277.5
2083.82	4330365.0
2084.07	4085918.2
2084.32	4300042.5
2084.57	4281718.5
2084.82	4336253.5
2085.07	4304137.5
2085.32	4344508.0
2085.57	4320177.0
2085.82	4333772.5
2086.07	4296641.5
2086.32	4336335.5
2086.57	4312333.0
2086.82	4277532.0
2087.07	4307173.5
2087.32	4322877.5
2087.57	4291211.0
2087.82	4248317.0
2088.07	4300294.0
2088.32	4293121.0
2088.57	4293994.0
2088.82	4320362.0
2089.07	4206391.5
2089.32	4261182.0
2089.57	4302572.5
2089.82	4309995.5
2090.07	4298944.0
2090.32	4302342.0
2090.57	4278103.0
2090.82	4294064.5
2091.07	4298192.0
2091.32	4282835.0
2091.57	4074631.5
2091.82	3840453.0
2092.07	4280313.5
2092.32	4292414.5
2092.57	4179473.8
2092.82	4282784.0
2093.07	4281876.0
2093.32	4248434.0
2093.57	4283825.0
2093.82	4244129.0
2094.07	4282992.0
2094.32	4278070.0
2094.57	4269398.5
2094.82	4243285.5
2095.07	4256773.0
2095.32	4271148.5
2095.57	4233591.0
2095.82	4248089.5
2096.07	4252123.5
2096.32	4131375.0
2096.57	4259950.5
2096.82	4262328.0
2097.07	4252779.5
2097.32	4137085.2
2097.57	4256210.5
2097.82	4249748.5
2098.07	4232809.0
2098.32	4226765.5
2098.57	4166754.0
2098.82	4202051.0
2099.07	4156575.0
2099.32	4228407.0
2099.57	4233970.0
2099.82	4237393.5
2100.07	4238489.5
2100.32	4229196.5
2100.57	4097729.0
2100.82	4221650.5
2101.07	4193762.8
2101.32	4188231.0
2101.57	4212408.0
2101.82	4165603.8
2102.07	4216058.0
2102.32	4023943.5
2102.57	4205807.5
2102.82	4215866.5
2103.07	4207632.5
2103.32	4215074.5
2103.57	4214711.5
2103.82	4210122.5
2104.07	4206135.0
2104.32	4200999.0
2104.57	4198423.0
2104.82	4200152.0
2105.07	4199407.0
2105.32	4194160.0
2105.57	4180590.5
2105.82	4159345.0
2106.07	4107409.2
2106.32	4176904.0
2106.57	4158448.0
2106.82	4145476.2
2107.07	4145387.5
2107.32	4087014.5
2107.57	4141783.8
2107.82	4168121.5
2108.07	4160977.2
2108.32	4165702.0
2108.57	4139149.0
2108.82	4164341.5
2109.07	4163120.5
2109.32	3825731.0
2109.57	4111674.8
2109.82	4162521.2
2110.07	4164838.0
2110.32	4154118.8
2110.57	4095085.8
2110.82	4157724.8
2111.07	4141696.0
2111.32	4114686.5
2111.57	4150463.2
2111.82	4143811.0
2112.07	4146995.2
2112.32	4089454.5
2112.57	4114398.0
2112.82	4125111.8
2113.07	4135699.8
2113.32	4132939.8
2113.57	4118813.8
2113.82	4012528.8
2114.07	4089589.2
2114.32	4131105.5
2114.57	4129239.2
2114.82	4110940.8
2115.07	4119182.0
2115.32	4118142.0
2115.57	4028337.0
2115.82	4111446.2
2116.07	4100430.0
2116.32	3663302.2
2116.57	4060077.0
2116.82	4094485.5
2117.07	4101082.2
2117.32	4087001.0
2117.57	4058071.5
2117.82	4079427.2
2118.07	4098132.5
2118.32	4087362.0
2118.57	3988218.5
2118.82	3879154.8
2119.07	3851483.8
2119.32	3968259.5
2119.57	4026939.2
2119.82	4011831.2
2120.07	4072240.0
2120.32	4079699.5
2120.57	4085404.0
2120.82	4062755.8
2121.07	3944749.2
2121.32	3995204.8
2121.57	4044886.0
2121.82	4028660.0
2122.07	4055873.0
2122.32	3996381.5
2122.57	3946364.0
2122.82	4041267.0
2123.07	3849118.0
2123.32	3826253.2
2123.57	4004943.2
2123.82	3971873.2
2124.07	4048225.0
2124.32	4038888.2
2124.57	4039183.8
2124.82	4050953.8
2125.07	4052412.5
2125.32	4037794.2
2125.57	4048438.8
2125.82	3957537.5
2126.07	3785718.8
2126.32	4037610.0
2126.57	4036458.8
2126.82	4036449.2
2127.07	4034968.8
2127.32	4034825.8
2127.57	3933360.5
2127.82	3943533.5
2128.07	4026985.0
2128.32	4024380.5
2128.57	4024930.2
2128.82	4005487.0
2129.07	4021208.0
2129.32	4018166.5
2129.57	3888405.8
2129.82	4006892.2
2130.07	4021418.2
2130.32	4012401.0
2130.57	4002613.0
2130.82	4006043.0
2131.07	4018359.5
2131.32	4012081.0
2131.57	4002585.8
2131.82	3997012.0
2132.07	3915973.0
2132.32	3997451.0
2132.57	3998432.0
2132.82	4003598.5
2133.07	3996522.2
2133.32	3991117.5
2133.57	3965245.5
2133.82	3986032.5
2134.07	3980234.0
2134.32	3984159.2
2134.57	3986991.0
2134.82	3984525.5
2135.07	3976196.2
2135.32	3599271.8
2135.57	3874625.5
2135.82	3980089.5
2136.07	3981669.2
2136.32	3972408.2
2136.57	3971400.2
2136.82	3959897.2
2137.07	3970749.5
2137.32	3960189.0
2137.57	3962716.5
2137.82	3965453.5
2138.07	3952985.2
2138.32	3958306.8
2138.57	3947584.2
2138.82	3872314.8
2139.07	3959553.2
2139.32	3947452.2
2139.57	3945207.2
2139.82	3949642.5
2140.07	3948501.0
2140.32	3936174.2
2140.57	3941829.0
2140.82	3942349.8
2141.07	3933034.2
2141.32	3943674.0
2141.57	3942250.5
2141.82	3935453.0
2142.07	3940424.8
2142.32	3935255.2
2142.57	3930330.2
2142.82	3780529.5
2143.07	3926209.8
2143.32	3917336.2
2143.57	3918783.2
2143.82	3904623.5
2144.07	3855418.8
2144.32	3902767.0
2144.57	3917270.0
2144.82	3917373.2
2145.07	3882987.5
2145.32	3842787.8
2145.57	3890304.5
2145.82	3802208.2
2146.07	3884008.8
2146.32	3907083.0
2146.57	3898059.0
2146.82	3904081.5
2147.07	3893802.0
2147.32	3892383.5
2147.57	3895562.0
2147.82	3901449.5
2148.07	3878253.8
2148.32	3881836.5
2148.57	3883312.0
2148.82	3881102.0
2149.07	3837346.0
2149.32	3886739.0
2149.57	3882602.5
2149.82	3860099.5
2150.07	3883782.8
2150.32	3881111.0
2150.57	3869702.5
2150.82	3873268.5
2151.07	3871362.8
2151.32	3869800.5
2151.57	3848262.5
2151.82	3867263.0
2152.07	3853488.0
2152.32	3770860.2
2152.57	3850955.5
2152.82	3842487.0
2153.07	3840596.2
2153.32	3807735.8
2153.57	3811390.5
2153.82	3829860.5
2154.07	3833522.8
2154.32	3833249.5
2154.57	3812419.5
2154.82	3839000.8
2155.07	3830788.5
2155.32	3823847.8
2155.57	3839408.8
2155.82	3830818.2
2156.07	3830133.2
2156.32	3812161.5
2156.57	3814170.5
2156.82	3814229.8
2157.07	3806942.2
2157.32	3812607.0
2157.57	3812802.0
2157.82	3807577.5
2158.07	3808502.5
2158.32	3800007.8
2158.57	3752492.0
2158.82	3788536.0
2159.07	3787628.5
2159.32	3758990.5
2159.57	3774026.0
2159.82	3771543.2
2160.07	3769166.0
2160.32	3769002.8
2160.57	3761639.5
2160.82	3752103.2
2161.07	3728176.0
2161.32	3664231.0
2161.57	3710541.8
2161.82	3706364.2
2162.07	3717068.8
2162.32	3704610.5
2162.57	3683631.8
2162.82	3678096.8
2163.07	3667965.8
2163.32	3649046.2
2163.57	3627681.8
2163.82	3604008.0
2164.07	3569391.8
2164.32	3498855.5
2164.57	3487350.0
2164.82	3419794.5
2165.07	3326996.8
2165.32	3138819.2
2165.57	2972349.5
2165.82	3237149.0
2166.07	3375192.2
2166.32	3450413.5
2166.57	3494278.2
2166.82	3539324.8
2167.07	3555932.0
2167.32	3516611.0
2167.57	3552377.2
2167.82	3617292.8
2168.07	3642596.8
2168.32	3631311.8
2168.57	3652463.5
2168.82	3627847.5
2169.07	3610762.2
2169.32	3653235.0
2169.57	3681710.5
2169.82	3639039.5
2170.07	3676389.0
2170.32	3690331.0
2170.57	3696461.0
2170.82	3697499.8
2171.07	3702156.2
2171.32	3625453.8
2171.57	3687389.0
2171.82	3698133.0
2172.07	3714715.0
2172.32	3704555.5
2172.57	3704763.8
2172.82	3695884.0
2173.07	3711083.8
2173.32	3709926.2
2173.57	3658703.0
2173.82	3686794.8
2174.07	3665453.2
2174.32	3680404.5
2174.57	3670274.2
2174.82	3679683.0
2175.07	3687118.5
2175.32	3678689.2
2175.57	3664816.0
2175.82	3674511.0
2176.07	3532265.2
2176.32	3671572.8
2176.57	3673260.5
2176.82	3687451.0
2177.07	3700126.5
2177.32	3696369.8
2177.57	3666437.2
2177.82	3480812.8
2178.07	3345902.5
2178.32	3629703.2
2178.57	3686189.2
2178.82	3623344.0
2179.07	3685034.2
2179.32	3678589.2
2179.57	3685783.8
2179.82	3692075.2
2180.07	3690193.5
2180.32	3685453.8
2180.57	3681172.0
2180.82	3683007.8
2181.07	3682765.8
2181.32	3669247.0
2181.57	3668273.8
2181.82	3574776.0
2182.07	3381590.5
2182.32	3626729.2
2182.57	3656868.2
2182.82	3674291.0
2183.07	3669479.8
2183.32	3647399.5
2183.57	3666526.0
2183.82	3644100.0
2184.07	3656208.0
2184.32	3667545.5
2184.57	3654507.8
2184.82	3659419.8
2185.07	3650938.0
2185.32	3651856.2
2185.57	3656652.2
2185.82	3632135.8
2186.07	3647205.8
2186.32	3648735.0
2186.57	3638161.0
2186.82	3648474.0
2187.07	3646074.2
2187.32	3497161.2
2187.57	3610142.0
2187.82	3323501.2
2188.07	3449008.8
2188.32	3631427.0
2188.57	3639922.5
2188.82	3634391.8
2189.07	3632664.2
2189.32	3626701.5
2189.57	3501493.5
2189.82	3593436.5
2190.07	3617547.0
2190.32	3603028.2
2190.57	3625523.2
2190.82	3607122.8
2191.07	3601599.8
2191.32	3616657.8
2191.57	3614791.2
2191.82	3622570.8
2192.07	3622325.5
2192.32	3620241.0
2192.57	3598843.8
2192.82	3615856.5
2193.07	3609347.5
2193.32	3588763.5
2193.57	3607070.2
2193.82	3593914.0
2194.07	3597923.0
2194.32	3495113.5
2194.57	3599111.2
2194.82	3594074.8
2195.07	3594633.8
2195.32	3596142.5
2195.57	3583401.5
2195.82	3598442.5
2196.07	3595403.5
2196.32	3581954.5
2196.57	3573087.5
2196.82	3585497.2
2197.07	3586443.5
2197.32	3577690.0
2197.57	3577430.5
2197.82	3584891.5
2198.07	3573401.0
2198.32	3573919.5
2198.57	3577708.0
2198.82	3574714.5
2199.07	3580480.8
2199.32	3537380.5
2199.57	3529235.8
2199.82	3557294.8
2200.07	3568758.5
2200.32	3565462.2
2200.57	3549684.5
2200.82	3561709.2
2201.07	3546024.2
2201.32	3545392.0
2201.57	3548920.5
2201.82	3554181.2
2202.07	3544507.5
2202.32	3549492.5
2202.57	3545985.0
2202.82	3543896.0
2203.07	3550426.5
2203.32	3463728.2
2203.57	3548958.8
2203.82	3549888.2
2204.07	3428848.5
2204.32	3532001.8
2204.57	3536890.0
2204.82	3529496.8
2205.07	3527939.8
2205.32	3514752.2
2205.57	3144577.0
2205.82	3478613.8
2206.07	3450663.5
2206.32	3049995.0
2206.57	3496843.8
2206.82	3525533.5
2207.07	3524893.8
2207.32	3420524.0
2207.57	3523353.2
2207.82	3524099.8
2208.07	3502458.0
2208.32	3206707.5
2208.57	3502778.5
2208.82	3512166.2
2209.07	3510351.8
2209.32	3517893.5
2209.57	3503458.5
2209.82	3500191.0
2210.07	3494398.2
2210.32	3496277.2
2210.57	3463335.8
2210.82	3497767.5
2211.07	3471039.8
2211.32	3474455.5
2211.57	3497563.5
2211.82	3462596.0
2212.07	3502046.8
2212.32	3502428.5
2212.57	3493180.8
2212.82	3495232.2
2213.07	3499711.5
2213.32	3488993.0
2213.57	3491273.0
2213.82	3493505.8
2214.07	3486199.0
2214.32	3475110.5
2214.57	3479876.8
2214.82	3481382.5
2215.07	3472220.8
2215.32	3483703.2
2215.57	3403697.5
2215.82	3475986.8
2216.07	3317664.5
2216.32	3471058.2
2216.57	3368910.2
2216.82	3425429.8
2217.07	3464157.8
2217.32	3467246.8
2217.57	3467146.2
2217.82	3434595.5
2218.07	3466722.2
2218.32	3463874.0
2218.57	3467178.8
2218.82	3462277.8
2219.07	3461874.0
2219.32	3457360.5
2219.57	3452323.0
2219.82	3440443.0
2220.07	3453127.2
2220.32	3452604.0
2220.57	3451416.0
2220.82	3442145.0
2221.07	3432115.0
2221.32	3449040.5
2221.57	3444315.0
2221.82	3440190.0
2222.07	3445445.8
2222.32	3445795.5
2222.57	3434865.0
2222.82	3430062.2
2223.07	3438839.8
2223.32	3417235.5
2223.57	3435069.5
2223.82	3433833.2
2224.07	3421345.5
2224.32	3408022.0
2224.57	3425490.5
2224.82	3429903.5
2225.07	3428538.5
2225.32	3413130.2
2225.57	3401616.0
2225.82	3287864.8
2226.07	3300701.0
2226.32	3419250.2
2226.57	3419608.0
2226.82	3410181.5
2227.07	3416731.2
2227.32	3387893.5
2227.57	3410623.5
2227.82	3307035.2
2228.07	3402204.0
2228.32	3410021.8
2228.57	3406428.5
2228.82	3403507.2
2229.07	3404956.5
2229.32	3399088.2
2229.57	3399878.5
2229.82	3331175.2
2230.07	3390910.5
2230.32	3390090.2
2230.57	3395323.0
2230.82	3367733.5
2231.07	3386181.8
2231.32	3392101.5
2231.57	3388313.0
2231.82	3388642.5
2232.07	3362312.8
2232.32	3378642.8
2232.57	3386944.2
2232.82	3378092.8
2233.07	3379773.2
2233.32	3382115.8
2233.57	3353707.0
2233.82	3378576.8
2234.07	3370671.0
2234.32	3366438.2
2234.57	3359043.8
2234.82	3369889.0
2235.07	3371646.5
2235.32	3366560.5
2235.57	3365816.8
2235.82	3365509.5
2236.07	3365671.0
2236.32	3366135.8
2236.57	3359866.8
2236.82	3356943.2
2237.07	3356933.2
2237.32	3360035.2
2237.57	3315434.5
2237.82	3350131.0
2238.07	3157438.0
2238.32	3333989.5
2238.57	3291442.8
2238.82	3347253.5
2239.07	3345997.2
2239.32	3262604.5
2239.57	3344443.5
2239.82	3342348.2
2240.07	3344443.2
2240.32	3342771.8
2240.57	3338518.5
2240.82	3330622.0
2241.07	3338734.5
2241.32	3324338.2
2241.57	3324844.8
2241.82	3332215.8
2242.07	3208024.5
2242.32	3317061.2
2242.57	3316325.8
2242.82	3319617.2
2243.07	3326296.0
2243.32	3324466.0
2243.57	3312475.0
2243.82	3299000.5
2244.07	3316871.5
2244.32	3316143.8
2244.57	3321777.5
2244.82	3314621.5
2245.07	3313767.5
2245.32	3305143.0
2245.57	3307019.5
2245.82	3313610.0
2246.07	3304328.5
2246.32	3310360.0
2246.57	3306813.0
2246.82	3304602.2
2247.07	3297084.5
2247.32	3061516.2
2247.57	3296484.0
2247.82	3275926.2
2248.07	3294353.8
2248.32	3287379.5
2248.57	3298651.0
2248.82	3294983.0
2249.07	3294217.8
2249.32	3260146.8
2249.57	3288459.2
2249.82	3290982.5
2250.07	3290562.0
2250.32	3286595.5
2250.57	3283836.2
2250.82	3188442.5
2251.07	3275642.5
2251.32	3281371.0
2251.57	3276495.2
2251.82	3188851.0
2252.07	3272453.5
2252.32	3273783.2
2252.57	3224405.8
2252.82	3275981.0
2253.07	3258598.8
2253.32	3263423.0
2253.57	3221406.8
2253.82	2894184.0
2254.07	3236106.8
2254.32	3256288.5
2254.57	3246089.2
2254.82	3256951.0
2255.07	3251101.0
2255.32	3130509.0
2255.57	3258807.8
2255.82	3252337.2
2256.07	3256020.0
2256.32	3157312.8
2256.57	3237657.2
2256.82	3242806.8
2257.07	3216757.2
2257.32	3251401.2
2257.57	3204034.5
2257.82	3243739.5
2258.07	3247072.2
2258.32	3246334.2
2258.57	3243894.2
2258.82	3240575.5
2259.07	3241377.2
2259.32	3234804.8
2259.57	3227990.8
2259.82	3230253.5
2260.07	3234490.5
2260.32	3233285.0
2260.57	3234037.2
2260.82	3135607.2
2261.07	3226721.5
2261.32	3210364.0
2261.57	3217966.0
2261.82	3214274.5
2262.07	3004576.5
2262.32	3205881.5
2262.57	3095671.2
2262.82	3211567.8
2263.07	3212801.5
2263.32	3217895.2
2263.57	3216082.2
2263.82	3211817.0
2264.07	3214153.8
2264.32	3139690.8
2264.57	3207671.0
2264.82	3209632.0
2265.07	3075863.8
2265.32	3185228.8
2265.57	3183661.8
2265.82	3204319.0
2266.07	3195589.2
2266.32	3198913.8
2266.57	3158578.5
2266.82	3199489.0
2267.07	3199350.2
2267.32	3194104.0
2267.57	3183655.8
2267.82	3193786.5
2268.07	3192882.0
2268.32	3190125.5
2268.57	3192331.0
2268.82	3189134.5
2269.07	3154784.5
2269.32	3182884.5
2269.57	3178642.8
2269.82	3181990.0
2270.07	3175945.8
2270.32	3177616.8
2270.57	3173209.0
2270.82	2982387.0
2271.07	3151398.8
2271.32	3163380.5
2271.57	3155273.8
2271.82	3166167.0
2272.07	3172134.5
2272.32	3169214.2
2272.57	3167604.2
2272.82	3161305.2
2273.07	3162424.8
2273.32	3164034.8
2273.57	3158650.8
2273.82	3156762.8
2274.07	3022383.5
2274.32	3150629.2
2274.57	3144790.8
2274.82	3144056.8
2275.07	3128315.8
2275.32	3150305.5
2275.57	3131749.0
2275.82	3145068.0
2276.07	3120859.0
2276.32	3144838.8
2276.57	3148062.5
2276.82	3146701.5
2277.07	3144266.5
2277.32	3145448.5
2277.57	3130315.8
2277.82	3139024.8
2278.07	3125106.0
2278.32	3125365.2
2278.57	3128015.0
2278.82	3130295.5
2279.07	3128351.2
2279.32	3096367.5
2279.57	3056406.2
2279.82	3120028.8
2280.07	3122606.2
2280.32	3093067.2
2280.57	3030475.0
2280.82	2528489.0
2281.07	3040738.5
2281.32	3065638.0
2281.57	3113552.2
2281.82	3114907.8
2282.07	3015936.2
2282.32	3114363.5
2282.57	3109508.0
2282.82	3109926.5
2283.07	3107458.8
2283.32	3053674.5
2283.57	3114771.0
2283.82	3113915.5
2284.07	3085798.2
2284.32	3103591.8
2284.57	3058602.5
2284.82	3106202.2
2285.07	3106893.2
2285.32	3105181.0
2285.57	3094889.5
2285.82	3034537.0
2286.07	3092436.2
2286.32	3062080.2
2286.57	3097276.0
2286.82	3088716.2
2287.07	3091821.5
2287.32	3070987.5
2287.57	3086824.5
2287.82	3090434.2
2288.07	3087142.8
2288.32	3079317.2
2288.57	3089792.5
2288.82	3040428.5
2289.07	3075253.5
2289.32	3084195.0
2289.57	3084137.8
2289.82	3082744.2
2290.07	3083684.0
2290.32	3076883.0
2290.57	3002080.0
2290.82	3066910.8
2291.07	3062187.2
2291.32	3068719.2
2291.57	3054445.2
2291.82	3071728.0
2292.07	3069249.2
2292.32	3069203.5
2292.57	3062059.2
2292.82	2943132.2
2293.07	2907042.0
2293.32	2995427.2
2293.57	2973918.2
2293.82	3000811.8
2294.07	2988025.0
2294.32	2999658.5
2294.57	3045006.8
2294.82	3007640.2
2295.07	2999251.8
2295.32	3009844.8
2295.57	2980063.5
2295.82	3035141.0
2296.07	2988811.0
2296.32	3014448.0
2296.57	2806924.5
2296.82	3042055.8
2297.07	3028337.2
2297.32	2996845.5
2297.57	3043490.2
2297.82	2984476.8
2298.07	3035735.0
2298.32	3023777.5
2298.57	2966237.8
2298.82	3029337.0
2299.07	2986958.0
2299.32	3024711.8
2299.57	3035532.0
2299.82	2945617.0
2300.07	3031081.2
2300.32	3035998.5
2300.57	2990373.2
2300.82	3015611.5
2301.07	3028008.0
2301.32	3027645.2
2301.57	2972834.5
2301.82	3027150.8
2302.07	3023510.5
2302.32	2955447.2
2302.57	3020755.2
2302.82	3020790.8
2303.07	3008861.5
2303.32	2964174.8
2303.57	3009664.2
2303.82	3006525.5
2304.07	2970113.0
2304.32	3002153.0
2304.57	2984486.8
2304.82	3006932.2
2305.07	2966128.0
2305.32	2997379.8
2305.57	3006033.8
2305.82	3007947.5
2306.07	2966444.5
2306.32	2990800.8
2306.57	2996115.2
2306.82	2995693.8
2307.07	2995150.5
2307.32	2954466.2
2307.57	2993755.8
2307.82	2993088.5
2308.07	2995007.8
2308.32	2954199.5
2308.57	2983697.5
2308.82	2992239.0
2309.07	2984943.0
2309.32	2957021.5
2309.57	2975987.0
2309.82	2977092.0
2310.07	2986311.5
2310.32	2973949.8
2310.57	2944691.5
2310.82	2973066.2
2311.07	2973912.0
2311.32	2978650.5
2311.57	2973967.0
2311.82	2942140.5
2312.07	2972485.2
2312.32	2967593.2
2312.57	2971492.5
2312.82	2967866.5
2313.07	2923447.0
2313.32	2967971.2
2313.57	2957110.5
2313.82	2966930.2
2314.07	2966521.8
2314.32	2881218.0
2314.57	2852706.8
2314.82	2956136.0
2315.07	2942083.8
2315.32	2952890.8
2315.57	2946631.2
2315.82	2930189.2
2316.07	2944903.5
2316.32	2878542.0
2316.57	2949656.2
2316.82	2951846.0
2317.07	2921129.5
2317.32	2914226.0
2317.57	2948047.5
2317.82	2942377.2
2318.07	2849005.0
2318.32	2932805.5
2318.57	2912399.5
2318.82	2942181.5
2319.07	2945572.5
2319.32	2933229.5
2319.57	2935852.8
2319.82	2929320.8
2320.07	2913166.2
2320.32	2936463.5
2320.57	2936669.0
2320.82	2930821.8
2321.07	2931833.8
2321.32	2919103.2
2321.57	2913773.5
2321.82	2915881.5
2322.07	2683861.0
2322.32	2771412.5
2322.57	2829658.2
2322.82	2830913.8
2323.07	2808664.8
2323.32	2825784.0
2323.57	2881675.2
2323.82	2861716.5
2324.07	2818715.2
2324.32	2909228.2
2324.57	2801493.0
2324.82	2861838.2
2325.07	2807965.5
2325.32	2908222.0
2325.57	2824905.2
2325.82	2907424.2
2326.07	2838930.2
2326.32	2867896.8
2326.57	2882644.2
2326.82	2847818.0
2327.07	2903485.8
2327.32	2859148.0
2327.57	2860306.5
2327.82	2874763.0
2328.07	2808452.8
2328.32	2898181.8
2328.57	2894250.8
2328.82	2814648.8
2329.07	2895598.2
2329.32	2889943.2
2329.57	2795280.2
2329.82	2891885.2
2330.07	2890640.8
2330.32	2855093.0
2330.57	2841727.0
2330.82	2822675.5
2331.07	2878003.2
2331.32	2789005.0
2331.57	2882831.8
2331.82	2884713.8
2332.07	2851777.8
2332.32	2835833.5
2332.57	2876236.2
2332.82	2851415.2
2333.07	2782489.2
2333.32	2859064.2
2333.57	2875633.0
2333.82	2870482.5
2334.07	2804747.2
2334.32	2870416.0
2334.57	2865927.2
2334.82	2634168.2
2335.07	2789092.8
2335.32	2864483.2
2335.57	2864630.5
2335.82	2865198.2
2336.07	2847007.5
2336.32	2804814.2
2336.57	2849017.8
2336.82	2844480.0
2337.07	2848354.5
2337.32	2788764.8
2337.57	2848492.5
2337.82	2569007.5
2338.07	2760890.2
2338.32	2803018.5
2338.57	2809709.5
2338.82	2849807.0
2339.07	2850078.2
2339.32	2846693.8
2339.57	2792564.5
2339.82	2830026.8
2340.07	2821523.0
2340.32	2844048.8
2340.57	2833624.5
2340.82	2784088.8
2341.07	2826168.5
2341.32	2839024.5
2341.57	2837504.0
2341.82	2837809.2
2342.07	2787563.5
2342.32	2821185.2
2342.57	2826657.2
2342.82	2832397.5
2343.07	2832169.5
2343.32	2776133.8
2343.57	2827325.5
2343.82	2816101.5
2344.07	2817283.5
2344.32	2819401.8
2344.57	2823141.8
2344.82	2773943.5
2345.07	2806511.0
2345.32	2807228.8
2345.57	2817647.2
2345.82	2788007.0
2346.07	2765432.8
2346.32	2814046.0
2346.57	2810940.5
2346.82	2813384.0
2347.07	2811287.0
2347.32	2776201.5
2347.57	2751064.8
2347.82	2797823.0
2348.07	2759491.0
2348.32	2799219.8
2348.57	2788925.0
2348.82	2799514.0
2349.07	2763775.8
2349.32	2805065.5
2349.57	2797176.8
2349.82	2775266.8
2350.07	2774196.0
2350.32	2790146.2
2350.57	2761885.8
2350.82	2799051.5
2351.07	2762753.2
2351.32	2785825.2
2351.57	2792690.2
2351.82	2583120.8
2352.07	2599370.5
2352.32	2664551.0
2352.57	2695483.5
2352.82	2721401.8
2353.07	2700571.2
2353.32	2709860.2
2353.57	2729577.2
2353.82	2693079.2
2354.07	2745893.8
2354.32	2717548.5
2354.57	2743942.0
2354.82	2716992.2
2355.07	2748156.8
2355.32	2687132.8
2355.57	2738713.0
2355.82	2717172.8
2356.07	2772788.0
2356.32	2692172.5
2356.57	2621144.2
2356.82	2730419.0
2357.07	2670494.0
2357.32	2718298.5
2357.57	2712217.2
2357.82	2698192.5
2358.07	2768018.5
2358.32	2732273.2
2358.57	2707305.5
2358.82	2736897.8
2359.07	2737957.5
2359.32	2699320.2
2359.57	2752196.0
2359.82	2733550.5
2360.07	2681570.5
2360.32	2734246.2
2360.57	2714579.5
2360.82	2683542.5
2361.07	2718755.0
2361.32	2750415.2
2361.57	2729695.8
2361.82	2688914.8
2362.07	2745054.5
2362.32	2725229.0
2362.57	2715731.0
2362.82	2679136.2
2363.07	2738989.0
2363.32	2744268.5
2363.57	2723119.0
2363.82	2679258.2
2364.07	2733978.2
2364.32	2724468.8
2364.57	2728814.0
2364.82	2655351.0
2365.07	2737100.5
2365.32	2735253.5
2365.57	2727494.8
2365.82	2660272.5
2366.07	2711591.2
2366.32	2722159.2
2366.57	2729013.8
2366.82	2711607.0
2367.07	2670891.5
2367.32	2700758.8
2367.57	2723601.5
2367.82	2724888.5
2368.07	2641555.2
2368.32	2674405.8
2368.57	2715825.5
2368.82	2720027.0
2369.07	2718405.5
2369.32	2638210.5
2369.57	2638921.5
2369.82	2698644.0
2370.07	2701282.0
2370.32	2712832.2
2370.57	2646183.0
2370.82	2711058.8
2371.07	2708392.0
2371.32	2687423.2
2371.57	2705789.5
2371.82	2645733.8
2372.07	2679528.0
2372.32	2658297.0
2372.57	2683770.2
2372.82	2685244.0
2373.07	2632035.5
2373.32	2628206.8
2373.57	2396826.0
2373.82	2479791.5
2374.07	2646462.2
2374.32	2678141.0
2374.57	2638216.5
2374.82	2674178.0
2375.07	2664612.8
2375.32	2687631.8
2375.57	2681294.5
2375.82	2643207.8
2376.07	2646111.5
2376.32	2674574.8
2376.57	2675513.8
2376.82	2683321.8
2377.07	2682410.0
2377.32	2640728.5
2377.57	2659092.2
2377.82	2672305.2
2378.07	2679861.2
2378.32	2669017.5
2378.57	2671355.5
2378.82	2634109.8
2379.07	2673107.0
2379.32	2665888.2
2379.57	2662086.5
2379.82	2670574.0
2380.07	2672702.2
2380.32	2610115.5
2380.57	2664723.0
2380.82	2663414.8
2381.07	2660836.5
2381.32	2656158.8
2381.57	2665379.2
2381.82	2662277.0
2382.07	2629540.8
2382.32	2463484.2
2382.57	2517728.2
2382.82	2544795.2
2383.07	2551786.5
2383.32	2562391.8
2383.57	2472647.5
2383.82	2575743.8
2384.07	2558151.2
2384.32	2458264.5
2384.57	2562539.5
2384.82	2582597.8
2385.07	2569808.2
2385.32	2577308.5
2385.57	2572958.2
2385.82	2374517.8
2386.07	2497705.2
2386.32	2615380.5
2386.57	2608654.5
2386.82	2582255.2
2387.07	2585182.5
2387.32	2581313.2
2387.57	2629921.0
2387.82	2616766.5
2388.07	2579245.8
2388.32	2626785.2
2388.57	2580773.0
2388.82	2550160.0
2389.07	2625807.0
2389.32	2605243.0
2389.57	2580905.2
2389.82	2610470.8
2390.07	2605863.0
2390.32	2573514.0
2390.57	2594887.5
2390.82	2627408.2
2391.07	2607787.5
2391.32	2575413.0
2391.57	2600017.8
2391.82	2600461.2
2392.07	2574238.2
2392.32	2543412.2
2392.57	2583262.0
2392.82	2594572.8
2393.07	2567060.8
2393.32	2620022.0
2393.57	2619401.8
2393.82	2582691.2
2394.07	2563289.8
2394.32	2578301.2
2394.57	2601238.8
2394.82	2583626.8
2395.07	2561682.0
2395.32	2546205.2
2395.57	2609538.0
2395.82	2601135.8
2396.07	2535149.8
2396.32	2593776.2
2396.57	2601959.8
2396.82	2595332.2
2397.07	2582948.2
2397.32	2510258.2
2397.57	2591136.2
2397.82	2596631.8
2398.07	2577234.0
2398.32	2579716.8
2398.57	2547682.8
2398.82	2588266.8
2399.07	2588245.8
2399.32	2535783.8
2399.57	2528870.8
2399.82	2484838.5
