wavelength	flux
1.57	1466.1902
1.82	2619.1436
2.0700002	2044.4097
2.3200002	3404.888
2.5700002	522.86176
2.8200002	1977.1873
3.0700002	1819.4794
3.3200002	3948.537
3.5700002	2654.9521
3.8200002	2885.968
4.07	5258.506
4.32	3914.267
4.57	2840.4587
4.82	4366.817
5.07	4843.652
5.32	3845.8735
5.57	6222.2627
5.82	4357.595
6.07	5781.576
6.32	5738.561
6.5699997	3552.6257
6.8199997	3319.6545
7.0699997	5242.46
7.3199997	4725.0728
7.5699997	4448.1416
7.8199997	2808.1658
8.07	3146.5164
8.32	5182.2017
8.57	2716.2356
8.82	3484.3755
9.07	2976.409
9.32	2908.7559
9.57	3291.538
9.82	2926.9053
10.07	6226.932
10.32	7906.626
10.57	5051.062
10.82	3884.2993
11.07	3690.0652
11.32	3800.6233
11.57	3875.0469
11.82	3129.0762
12.07	2625.1992
12.32	3595.618
12.57	2232.9902
12.82	1593.4858
13.07	3127.1055
13.32	2317.4512
13.57	3140.39
13.82	2349.6646
14.07	3626.1497
14.32	3544.5432
14.57	3967.073
14.82	12031.952
15.07	5037.761
15.32	7889.051
15.57	2891.8328
15.82	4778.196
16.07	4639.4595
16.32	5155.5967
16.57	3556.2375
16.82	15983.567
17.07	79971.62
17.32	31925.46
17.57	41617.25
17.82	32799.52
18.07	56108.355
18.32	17702.111
18.57	25912.898
18.82	54799.426
19.07	20042.348
19.32	59596.508
19.57	49809.996
19.82	14094.59
20.07	34676.586
20.32	41934.562
20.57	10117.182
20.82	14358.058
21.07	34341.37
21.32	9388.347
21.57	8523.789
21.82	16343.839
22.07	19524.385
22.32	17651.99
22.57	23188.312
22.82	15679.01
23.07	6099.8774
23.32	9332.44
23.57	7787.4023
23.82	7909.64
24.07	13120.234
24.32	18686.432
24.57	11308.521
24.82	7270.217
25.07	8936.32
25.32	11527.697
25.57	30575.002
25.820002	33991.31
26.070002	11002.794
26.320002	6828.6157
26.570002	12446.62
26.820002	2838.387
27.070002	8815.271
27.320002	13507.195
27.570002	11559.136
27.820002	10127.675
28.070002	4975.8438
28.320002	34616.66
28.570002	29031.707
28.820002	2919.0781
29.070002	6256.207
29.320002	6289.1772
29.570002	7482.3774
29.820002	1984.6836
30.070002	6311.096
30.320002	168807.89
30.570002	27041.512
30.820002	5139.258
31.070002	2239.3003
31.320002	7905.653
31.570002	11344.894
31.820002	6700.235
32.070004	8431.052
32.320004	2447.9885
32.570004	1870.8612
32.820004	3456.138
33.070004	1837.309
33.320004	12957.195
33.570004	27064.395
33.820004	4377.8643
34.070004	5354.8867
34.570004	10596.441
34.820004	6537.259
35.070004	6211.2207
35.320004	5905.891
35.570004	2714.7573
35.820004	9761.925
36.070004	3315.0059
36.320004	6722.745
36.570004	17296.344
36.820004	10939.985
37.070004	453.2008
37.320004	704.9576
38.070004	1370.8326
38.320004	2188.224
39.320004	149.27702
39.820004	1430.1567
40.070004	2559.8772
41.070004	850.03
41.320004	551.20667
41.570004	3286.9148
41.820004	829.16583
42.070004	65.274796
42.570004	535.35034
42.820004	1757.4523
43.070004	1875.6921
43.320004	2035.6857
43.570004	3721.7397
43.820004	252.89508
44.320004	571.8031
44.570004	1030.4786
44.820004	824.6649
45.070004	96.67844
45.320004	1451.5897
45.570004	571.5329
45.820004	727.1096
46.070004	904.05817
46.320004	3677.623
46.570004	4285.418
46.820004	1138.0369
47.070004	1118.6625
47.820004	904.325
48.070004	1460.42
48.320004	1092.5338
48.570004	1368.8889
48.820004	1307.1632
49.070004	1353.7422
49.320004	372.33496
49.570004	2099.7214
49.820004	6771.211
50.070004	2174.236
50.320004	477.39526
50.570004	477.39526
50.820004	477.39526
51.070004	477.39526
51.320004	477.39526
51.570004	477.39526
51.820004	477.39526
52.070004	477.39526
52.320004	477.39526
52.570004	477.39526
52.820004	477.39526
53.070004	477.39526
53.320004	477.39526
53.570004	477.39526
53.820004	477.39526
54.070004	477.39526
54.320004	477.39526
54.570004	477.39526
54.820004	477.39526
55.070004	1158.5302
55.320004	1350.6451
55.570004	1350.6451
55.820004	1350.6451
56.070004	1350.6451
56.320004	1350.6451
56.570004	1350.6451
56.820004	1350.6451
57.070004	1350.6451
57.320004	1350.6451
57.570004	1350.6451
57.820004	1350.6451
58.070004	1350.6451
58.320004	1350.6451
58.570004	1350.6451
58.820004	1350.6451
59.070004	1350.6451
59.320004	1350.6451
59.570004	1350.6451
59.820004	1350.6451
60.070004	1350.6451
60.320004	1350.6451
60.570004	1350.6451
60.820004	1350.6451
61.070004	1350.6451
61.320004	1350.6451
61.570004	1350.6451
61.820004	1350.6451
62.070004	1350.6451
62.320004	1350.6451
62.570004	1350.6451
62.820004	1350.6451
63.070004	1350.6451
63.320004	1350.6451
63.570004	1350.6451
63.820004	1350.6451
64.07	1350.6451
64.32	1350.6451
64.57	1350.6451
64.82	1350.6451
65.07	1148.9032
65.32	1092.0015
65.57	1092.0015
65.82	1092.0015
66.07	1092.0015
66.32	1092.0015
66.57	1092.0015
66.82	1092.0015
67.07	1092.0015
67.32	1092.0015
67.57	1092.0015
67.82	1092.0015
68.07	1092.0015
68.32	1092.0015
68.57	1092.0015
68.82	1092.0015
69.07	1092.0015
69.32	1092.0015
69.57	1092.0015
69.82	1092.0015
70.07	1092.0015
70.32	1092.0015
70.57	1092.0015
70.82	1092.0015
71.07	1092.0015
71.32	1092.0015
71.57	1092.0015
71.82	1092.0015
72.07	1092.0015
72.32	1092.0015
72.57	1092.0015
72.82	1092.0015
73.07	1092.0015
73.32	1092.0015
73.57	1092.0015
73.82	1092.0015
74.07	1092.0015
74.32	1092.0015
74.57	1092.0015
74.82	1092.0015
75.07	1763.1213
75.32	1952.4114
75.57	1952.4114
75.82	1952.4114
76.07	1952.4114
76.32	1952.4114
76.57	1952.4114
76.82	1952.4114
77.07	1952.4114
77.32	1952.4114
77.57	1952.4114
77.82	1952.4114
78.07	1952.4114
78.32	1952.4114
78.57	1952.4114
78.82	1952.4114
79.07	1952.4114
79.32	1952.4114
79.57	1952.4114
79.82	1952.4114
80.07	1952.4114
80.32	1952.4114
80.57	1952.4114
80.82	1952.4114
81.07	1952.4114
81.32	1952.4114
81.57	1952.4114
81.82	1952.4114
82.07	1952.4114
82.32	1952.4114
82.57	1952.4114
82.82	1952.4114
83.07	1952.4114
83.32	1952.4114
83.57	1952.4114
83.82	1952.4114
84.07	1952.4114
84.32	1952.4114
84.57	1952.4114
84.82	1952.4114
85.07	1952.4114
85.32	1952.4114
85.57	2482.394
85.82	3347.1033
86.07	3347.1033
86.32	3347.1033
86.57	3347.1033
86.82	3347.1033
87.07	3347.1033
87.32	3347.1033
87.57	3347.1033
87.82	3347.1033
88.07	3347.1033
88.32	3347.1033
88.57	3347.1033
88.82	3347.1033
89.07	3347.1033
89.32	3347.1033
89.57	3347.1033
89.82	3347.1033
90.07	3347.1033
90.32	3347.1033
90.57	3347.1033
90.82	3347.1033
91.07	3347.1033
91.32	3347.1033
91.57	3347.1033
91.82	3347.1033
92.07	3347.1033
92.32	3347.1033
92.57	3347.1033
92.82	3347.1033
93.07	3347.1033
93.32	3347.1033
93.57	3347.1033
93.82	3347.1033
94.07	3347.1033
94.32	3347.1033
94.57	3347.1033
94.82	3347.1033
95.07	3347.1033
95.32	3347.1033
95.57	3347.1033
95.82	3347.1033
96.07	3347.1033
96.32	3347.1033
96.57	3347.1033
96.82	3347.1033
97.07	2438.7888
97.32	956.80145
97.57	956.80145
97.82	956.80145
98.07	956.80145
98.32	956.80145
98.57	956.80145
98.82	956.80145
99.07	956.80145
99.32	956.80145
99.57	956.80145
99.82	956.80145
100.07	956.80145
100.32	956.80145
100.57	956.80145
100.82	956.80145
101.07	956.80145
101.32	956.80145
101.57	956.80145
101.82	956.80145
102.07	956.80145
102.32	956.80145
102.57	956.80145
102.82	956.80145
103.07	6402.4604
103.32	6036.2427
103.57	1078.6436
103.82	1848.1013
104.07	562.38654
104.57	780.9243
104.82	639.01154
105.32	91.59363
105.57	2224.9548
105.82	1778.8608
106.07	3232.0476
106.32	1488.474
106.57	616.2263
106.82	670.6957
107.07	1137.9666
107.32	1444.6327
107.57	325.41992
107.82	795.8866
108.07	1244.6575
108.32	488.31924
108.57	2307.58
108.82	191.41971
109.32	597.51526
109.57	844.3815
109.82	471.20685
110.07	969.3304
110.32	1542.5461
110.57	584.23456
111.32	1052.9218
111.57	758.02686
111.82	391.77377
112.07	554.91785
112.32	838.6996
112.57	186.88666
112.82	939.182
113.07	85.827545
113.32	181.49886
113.57	333.3098
113.82	404.37186
114.07	563.32776
114.32	640.6217
114.57	514.6406
114.82	507.46542
115.07	420.9488
115.32	653.90906
115.57	1203.825
115.82	899.0833
116.07	870.62524
116.32	869.3256
116.57	1659.3385
116.82	1503.9656
117.07	1376.5258
117.32	836.6343
117.57	9187.436
117.82	786.4344
118.07	553.1531
118.32	657.004
118.57	752.33844
118.82	939.5442
119.07	1376.9713
119.32	1645.1538
119.57	1079.8613
119.82	1491.58
120.07	1793.8424
120.32	1103.6451
120.57	16286.891
120.82	1550.7639
121.07	40.18215
121.32	12292.965
121.57	828008.1
121.82	11983.954
122.07	1102.2833
122.32	1185.8108
122.57	929.06903
122.82	903.05414
123.07	745.937
123.32	670.88385
123.57	657.7613
123.82	2964.1519
124.07	731.7768
124.32	1901.936
124.57	550.52875
124.82	679.605
125.07	584.03186
125.32	878.6816
125.57	787.1374
125.82	1099.1068
126.07	1537.7968
126.32	363.9015
126.57	3174.8303
126.82	450.5903
127.07	433.5917
127.32	383.37927
127.57	970.594
127.82	828.0524
128.06999	654.3009
128.31999	342.97275
128.56999	318.3458
128.81999	809.84436
129.06999	590.7437
129.31999	404.7381
129.56999	871.44214
129.81999	851.0338
130.06999	1324.6136
130.31999	7404.187
130.56999	16439.174
130.81999	1658.1299
131.06999	1066.0381
131.31999	838.37164
131.56999	873.2543
131.81999	1215.0355
132.06999	518.77295
132.31999	752.0973
132.56999	616.8729
132.81999	988.52484
133.06999	593.33
133.31999	6516.884
133.56999	22128.135
133.81999	636.32245
134.06999	596.1275
134.31999	694.55493
134.56999	658.53436
134.81999	705.01074
135.06999	1836.3169
135.31999	860.2792
135.56999	2805.9272
135.81999	1909.5278
136.06999	1088.9691
136.31999	1100.8357
136.56999	814.7861
136.81999	971.63965
137.06999	1326.498
137.31999	1124.1606
137.56999	1038.8433
137.81999	999.0671
138.06999	1249.5104
138.31999	1002.85767
138.56999	1008.01575
138.81999	1112.5906
139.06999	1090.6359
139.31999	9582.4375
139.56999	1195.314
139.81999	1264.6497
140.06999	2323.0093
140.31999	5422.6284
140.56999	1856.583
140.81999	1483.2881
141.06999	1619.3007
141.31999	1567.9639
141.56999	1576.9441
141.81999	1482.4865
142.06999	1448.5096
142.31999	1543.6235
142.56999	2173.3123
142.81999	1507.1257
143.06999	1748.7854
143.31999	2329.0457
143.56999	2042.1211
143.81999	1734.5895
144.06999	1825.1344
144.31999	1971.6108
144.56999	2100.5066
144.81999	1930.7872
145.06999	1913.6396
145.31999	1986.7058
145.56999	2318.4666
145.81999	2254.0188
146.06999	2087.4597
146.31999	2507.3713
146.56999	2355.311
146.81999	3234.072
147.06999	2635.828
147.31999	5319.5786
147.56999	2533.1226
147.81999	2385.2156
148.06999	3613.8755
148.31999	3153.335
148.56999	3501.9617
148.81999	2762.68
149.06999	2707.3318
149.31999	3140.5266
149.56999	2811.9167
149.81999	3019.574
150.06999	3449.132
150.31999	3392.3708
150.56999	3224.4536
150.81999	3324.8875
151.06999	4029.0576
151.31999	3621.1392
151.56999	3691.18
151.81999	3619.445
152.06999	3791.7517
152.31999	4008.585
152.56999	6362.451
152.81999	4314.259
153.06999	4094.5608
153.31999	7184.9546
153.56999	4638.836
153.81999	4736.9497
154.06999	5236.808
154.31999	4485.1445
154.56999	4745.816
154.81999	22254.283
155.06999	14305.707
155.31999	4585.8467
155.56999	4924.041
155.81999	7737.919
156.06999	12684.458
156.31999	5744.7017
156.56999	5933.6694
156.81999	5731.964
157.06999	7717.6665
157.31999	7137.403
157.56999	7586.6963
157.81999	5637.911
158.06999	6630.589
158.31999	5696.84
158.56999	7046.357
158.81999	7258.0625
159.06999	6551.0938
159.31999	6834.247
159.56999	6628.5645
159.81999	5787.427
160.06999	7249.5723
160.31999	8272.127
160.56999	6918.8003
160.81999	7833.613
161.06999	8972.207
161.31999	10432.725
161.56999	7465.1265
161.81999	8130.614
162.06999	9417.059
162.31999	9514.583
162.56999	10904.261
162.81999	10468.657
163.06999	9053.83
163.31999	12301.154
163.56999	8958.328
163.81999	11152.844
164.06999	14596.011
164.31999	11725.842
164.56999	10571.372
164.81999	11097.514
165.06999	9469.963
165.31999	11859.476
165.56999	22464.963
165.81999	32264.605
166.06999	12937.297
166.31999	13571.858
166.56999	14089.634
166.81999	11736.559
167.06999	17520.277
167.31999	14635.05
167.56999	14636.637
167.81999	14504.86
168.06999	11444.406
168.31999	11662.947
168.56999	19442.293
168.81999	13698.511
169.06999	19920.383
169.31999	21153.02
169.56999	23886.586
169.81999	19684.963
170.06999	21216.723
170.31999	15826.632
170.56999	17724.982
170.81999	18107.326
171.06999	19305.043
171.31999	20207.938
171.56999	26557.951
171.81999	26734.664
172.06999	26602.621
172.31999	23505.812
172.56999	29384.66
172.81999	22886.71
173.06999	16514.332
173.31999	18569.105
173.56999	20882.33
173.81999	21155.576
174.06999	27010.957
174.31999	28757.564
174.56999	33204.715
174.81999	28861.836
175.06999	35154.836
175.31999	34956.027
175.56999	36325.484
175.81999	35967.984
176.06999	35245.957
176.31999	34135.305
176.56999	31091.434
176.81999	39608.38
177.06999	43553.68
177.31999	48757.535
177.56999	36636.46
177.81999	45856.824
178.06999	48586.008
178.31999	47491.594
178.56999	49274.65
178.81999	51837.613
179.06999	55521.883
179.31999	41326.97
179.56999	45339.02
179.81999	49398.99
180.06999	52428.016
180.31999	53245.555
180.56999	55135.734
180.81999	75839.305
181.06999	57272.94
181.31999	53666.47
181.56999	95529.695
181.81999	78723.52
182.06999	62956.86
182.31999	70954.79
182.56999	69808.29
182.81999	65273.8
183.06999	67305.94
183.31999	70855.9
183.56999	73039.734
183.81999	77747.234
184.06999	61395.984
184.31999	67930.93
184.56999	66548.4
184.81999	56930.96
185.06999	61660.25
185.31999	68359.59
185.56999	85525.87
185.81999	71356.586
186.06999	77469.5
186.31999	77657.805
186.56999	76764.53
186.81999	94668.625
187.06999	95948.88
187.31999	94994.87
187.56999	91588.805
187.81999	88864.2
188.06999	85141.586
188.31999	105572.195
188.56999	101751.18
188.81999	103444.695
189.06999	115988.48
189.31999	116214.0
189.56999	117111.195
189.81999	99036.82
190.06999	109775.8
190.31999	121075.77
190.56999	113439.81
190.81999	129559.52
191.06999	112604.08
191.31999	121131.086
191.56999	135037.4
191.81999	126060.336
192.06999	141754.05
192.31999	134175.11
192.56999	132779.73
192.81999	136043.58
193.06999	103030.11
193.31999	101230.92
193.56999	91991.64
193.81999	124932.86
194.06999	151819.03
194.31999	176521.66
194.56999	157541.56
194.81999	186532.4
195.06999	159996.47
195.31999	164340.88
195.56999	169461.05
195.81999	171879.73
196.06999	169280.27
196.31999	170456.7
196.56999	196155.39
196.81999	204846.39
197.06999	192526.55
197.31999	190114.25
197.56999	190705.22
197.81999	188485.4
198.06999	200263.84
198.31999	201578.77
198.56999	192017.31
198.81999	185879.03
199.06999	192693.3
199.31999	220640.08
199.56999	208424.5
199.81999	202518.33
200.06999	217810.0
200.31999	223404.42
200.56999	228577.53
200.81999	220786.72
201.06999	227703.78
201.31999	246758.47
201.56999	238485.58
201.81999	259518.12
202.06999	247689.75
202.31999	249417.16
202.56999	206851.69
202.81999	258607.11
203.06999	277647.97
203.31999	257530.25
203.56999	272356.0
203.81999	279264.03
204.06999	277784.56
204.31999	303675.56
204.56999	311792.25
204.81999	299099.94
205.06999	308590.66
205.31999	322494.84
205.56999	300924.0
205.81999	310990.0
206.06999	334030.53
206.31999	298797.5
206.56999	333939.4
206.81999	346394.28
207.06999	347751.88
207.31999	355227.16
207.56999	370612.1
207.81999	372942.4
208.06999	388318.56
208.31999	388264.88
208.56999	408353.44
208.81999	486135.1
209.06999	470298.88
209.31999	550407.7
209.56999	577869.7
209.81999	614458.6
210.06999	590225.94
210.31999	666510.5
210.56999	836281.25
210.81999	721733.75
211.06999	629655.7
211.31999	860256.4
211.56999	755503.3
211.81999	965834.9
212.06999	1084518.5
212.31999	657595.4
212.56999	619015.0
212.81999	892698.0
213.06999	729692.9
213.31999	834964.75
213.56999	689760.06
213.81999	895296.2
214.06999	1055549.9
214.31999	1188255.4
214.56999	1031789.7
214.81999	1066043.5
215.06999	965234.7
215.31999	1144016.6
215.56999	940240.0
215.81999	615750.4
216.06999	971694.7
216.31999	1011815.94
216.56999	863675.1
216.81999	759810.56
217.06999	820020.25
217.31999	984359.5
217.56999	773673.6
217.81999	785608.56
218.06999	1356140.8
218.31999	1264911.9
218.56999	1230466.8
218.81999	887715.56
219.06999	1076215.1
219.31999	1347572.1
219.56999	1039602.2
219.81999	1361541.0
220.06999	1010960.7
220.31999	1571968.0
220.56999	1434078.2
220.81999	998835.75
221.06999	850993.4
221.31999	1093119.6
221.56999	1158060.2
221.81999	803143.9
222.06999	1392742.8
222.31999	1294764.4
222.56999	1255354.5
222.81999	1207081.2
223.06999	1168209.0
223.31999	1834391.1
223.56999	1861328.9
223.81999	1466969.0
224.06999	1578817.5
224.31999	1299145.8
224.56999	1443544.1
224.81999	1755418.4
225.06999	1394025.4
225.31999	1329644.2
225.56999	1362388.6
225.81999	1391378.5
226.06999	1203510.0
226.31999	1237943.2
226.56999	952444.9
226.81999	992595.44
227.06999	909633.25
227.31999	1010676.56
227.56999	1019353.56
227.81999	1214917.9
228.06999	1430885.9
228.31999	1555989.2
228.56999	1570451.4
228.81999	1277661.1
229.06999	1239079.5
229.31999	1369517.4
229.56999	1606134.1
229.81999	980529.1
230.06999	1148985.6
230.31999	1283471.8
230.56999	1822328.1
230.81999	1765251.0
231.06999	1135383.5
231.31999	1030808.3
231.56999	1621197.6
231.81999	1653857.4
232.06999	1104276.1
232.31999	1883722.6
232.56999	1395736.4
232.81999	1410624.8
233.06999	1545878.0
233.31999	1174735.9
233.56999	1651745.2
233.81999	996618.0
234.06999	1282575.2
234.31999	1209758.1
234.56999	935506.9
234.81999	1000274.5
235.06999	1543442.5
235.31999	1830982.8
235.56999	1570260.4
235.81999	1793868.4
236.06999	1114604.1
236.31999	1613228.1
236.56999	1361760.4
236.81999	1262734.4
237.06999	1840073.9
237.31999	1524201.4
237.56999	1462125.8
237.81999	1833108.2
238.06999	1189140.4
238.31999	796875.56
238.56999	1597125.4
238.81999	1313839.6
239.06999	1818447.5
239.31999	1834799.6
239.56999	961332.9
239.81999	1508101.9
240.06999	1436365.6
240.31999	1658348.9
240.56999	1022975.1
240.81999	1330614.1
241.06999	1211516.9
241.31999	1327345.4
241.56999	1720696.5
241.81999	2041472.4
242.06999	2106964.5
242.31999	2327441.5
242.56999	2020900.4
242.81999	2349867.0
243.06999	2258457.2
243.31999	2084906.9
243.56999	1865017.4
243.81999	2179154.8
244.06999	2068731.1
244.31999	2204677.5
244.56999	2078850.0
244.81999	1695297.1
245.06999	1732937.4
245.31999	1584359.8
245.56999	1724647.1
245.81999	1834142.2
246.06999	1632523.0
246.31999	1467010.9
246.56999	1806545.2
246.81999	1863868.4
247.06999	1907986.9
247.31999	1767434.1
247.56999	2194752.0
247.81999	1906336.0
248.06999	1837286.9
248.31999	1366943.1
248.56999	1736198.0
248.81999	1444760.2
249.06999	1100672.2
249.31999	1845538.6
249.56999	2290562.2
249.81999	2303300.2
250.06999	2226243.2
250.31999	2109335.8
250.56999	2186229.8
250.81999	1730579.1
251.06999	2117276.5
251.31999	1950321.0
251.56999	1295713.5
251.81999	1506305.0
252.06999	1661479.1
252.31999	1449584.8
252.56999	1464583.2
252.81999	1420825.1
253.06999	1665166.1
253.31999	1966335.0
253.56999	1900232.4
253.81999	1880122.6
254.06999	1897499.9
254.31999	2281946.8
254.56999	2005053.1
254.81999	2072878.9
255.06999	1940293.2
255.31999	2864718.8
255.56999	3027588.8
255.81999	2765090.5
256.07	3285024.2
256.32	2298580.2
256.57	3762418.8
256.82	3681651.8
257.07	4436836.0
257.32	4674315.5
257.57	2979497.8
257.82	3856747.2
258.07	5525644.5
258.32	4943722.5
258.57	2603307.5
258.82	3940548.8
259.07	5711897.0
259.32	3346823.8
259.57	3835568.8
259.82	2604152.5
260.07	2199336.2
260.32	4180507.8
260.57	3160053.8
260.82	2513201.5
261.07	3319314.0
261.32	2075231.9
261.57	3488126.5
261.82	3078017.8
262.07	4149168.2
262.32	3843858.2
262.57	3886175.8
262.82	3075602.5
263.07	2815208.0
263.32	3349386.5
263.57	5887546.5
263.82	8396996.0
264.07	7604151.5
264.32	10551707.0
264.57	7550058.0
264.82	6216805.5
265.07	6389115.5
265.32	7478587.5
265.57	9162266.0
265.82	8934801.0
266.07	9313125.0
266.32	6766819.0
266.57	8292918.5
266.82	8216440.0
267.07	8192932.0
267.32	6200979.5
267.57	9948579.0
267.82	8051117.5
268.07	7552047.0
268.32	7817744.0
268.57	7665543.0
268.82	7995944.0
269.07	6375932.0
269.32	8097159.0
269.57	6557351.5
269.82	7712953.0
270.07	10065605.0
270.32	8312092.5
270.57	9912608.0
270.82	7698134.5
271.07	8932735.0
271.32	9435590.0
271.57	6487938.5
271.82	7787077.5
272.07	3774132.2
272.32	6862304.0
272.57	7046393.0
272.82	7277261.5
273.07	9872373.0
273.32	7956518.5
273.57	7916893.5
273.82	5176631.5
274.07	4567240.5
274.32	3882576.0
274.57	5749936.5
274.82	4518132.0
275.07	3395777.0
275.32	8029813.5
275.57	4708432.5
275.82	8152537.5
276.07	9470463.0
276.32	7180088.5
276.57	10760433.0
276.82	8173354.5
277.07	8672976.0
277.32	9466422.0
277.57	9460545.0
277.82	6823124.5
278.07	5837053.0
278.32	5943870.5
278.57	6745845.0
278.82	5665240.0
279.07	4157106.8
279.32	2904234.8
279.57	2733935.0
279.82	1981165.8
280.07	2745241.2
280.32	2511978.2
280.57	3194948.5
280.82	4877290.5
281.07	6274823.5
281.32	6333348.5
281.57	10175462.0
281.82	8981201.0
282.07	10626069.0
282.32	10497122.0
282.57	10691329.0
282.82	10692864.0
283.07	13208594.0
283.32	12457060.0
283.57	9526559.0
283.82	13564204.0
284.07	10932524.0
284.32	10288636.0
284.57	10502751.0
284.82	6742264.0
285.07	3993527.5
285.32	1842879.6
285.57	5167753.0
285.82	8283049.0
286.07	11757684.0
286.32	13091495.0
286.57	14239917.0
286.82	11712715.0
287.07	12682509.0
287.32	14985356.0
287.57	12211935.0
287.82	10718449.0
288.07	7488795.5
288.32	6344398.0
288.57	14175754.0
288.82	12721233.0
289.07	12524028.0
289.32	13767847.0
289.57	14779864.0
289.82	17266854.0
290.07	23092120.0
290.32	18866664.0
290.57	21301354.0
290.82	18586310.0
291.07	18193810.0
291.32	22595684.0
291.57	16783562.0
291.82	18287088.0
292.07	18249410.0
292.32	18807022.0
292.57	14998026.0
292.82	14190268.0
293.07	18231048.0
293.32	20975852.0
293.57	21785466.0
293.82	11900490.0
294.07	16097777.0
294.32	18714344.0
294.57	18823176.0
294.82	13596410.0
295.07	15808065.0
295.32	21038422.0
295.57	18371864.0
295.82	18317922.0
296.07	19316002.0
296.32	22358728.0
296.57	14452935.0
296.82	12741785.0
297.07	12578330.0
297.32	13593048.0
297.57	20423912.0
297.82	25555544.0
298.07	17356232.0
298.32	10251459.0
298.57	10065454.0
298.82	14320379.0
299.07	21200708.0
299.32	18170602.0
299.57	12301473.0
299.82	20013524.0
300.07	8146533.5
300.32	9767791.0
300.57	17340948.0
300.82	10715767.0
301.07	17332284.0
301.32	15416404.0
301.57	17803106.0
301.82	15113484.0
302.07	6569215.0
302.32	18577580.0
302.57	14049219.0
302.82	24600270.0
303.07	19461264.0
303.32	23406880.0
303.57	25405482.0
303.82	14922452.0
304.07	20819256.0
304.32	18659626.0
304.57	24188402.0
304.82	15402433.0
305.07	21902006.0
305.32	29211406.0
305.57	20211450.0
305.82	12994772.0
306.07	16234092.0
306.32	23599968.0
306.57	18442836.0
306.82	14655372.0
307.07	25075906.0
307.32	23053788.0
307.57	18077208.0
307.82	21392168.0
308.07	25515932.0
308.32	15936179.0
308.57	28837828.0
308.82	19752588.0
309.07	19748674.0
309.32	12746295.0
309.57	21253776.0
309.82	16009130.0
310.07	12400636.0
310.32	18313996.0
310.57	22755112.0
310.82	26092538.0
311.07	25821830.0
311.32	28811830.0
311.57	26457510.0
311.82	18582476.0
312.07	11529470.0
312.32	22690458.0
312.57	22525648.0
312.82	23495692.0
313.07	23148600.0
313.32	13183133.0
313.57	20633446.0
313.82	26019808.0
314.07	27018290.0
314.32	22806348.0
314.57	7914991.5
314.82	14951081.0
315.07	26122516.0
315.32	24419310.0
315.57	21395128.0
315.82	13649640.0
316.07	22461808.0
316.32	32537756.0
316.57	28045360.0
316.82	30025850.0
317.07	40843930.0
317.32	46755316.0
317.57	41788276.0
317.82	32127346.0
318.07	24706004.0
318.32	23117388.0
318.57	32719656.0
318.82	43763044.0
319.07	37544980.0
319.32	22707370.0
319.57	28566922.0
319.82	41253780.0
320.07	32814214.0
320.32	40162340.0
320.57	42450092.0
320.82	33146304.0
321.07	24785690.0
321.32	21542412.0
321.57	34392416.0
321.82	34435372.0
322.07	36566908.0
322.32	34161224.0
322.57	29013492.0
322.82	18220714.0
323.07	27194502.0
323.32	27677814.0
323.57	22112214.0
323.82	31774512.0
324.07	39396016.0
324.32	30365236.0
324.57	49745148.0
324.82	26328938.0
325.07	40224536.0
325.32	32488890.0
325.57	49787500.0
325.82	50666588.0
326.07	42733880.0
326.32	45345656.0
326.57	44908530.0
326.82	45686560.0
327.07	34200710.0
327.32	41961108.0
327.57	45746944.0
327.82	36459050.0
328.07	37795580.0
328.32	41243612.0
328.57	42327068.0
328.82	42036000.0
329.07	47121764.0
329.32	51506636.0
329.57	47017750.0
329.82	53188544.0
330.07	49798708.0
330.32	39776036.0
330.57	37212890.0
330.82	42781420.0
331.07	44796570.0
331.32	35603892.0
331.57	36868932.0
331.82	46097668.0
332.07	42328132.0
332.32	35330564.0
332.57	48279656.0
332.82	40261260.0
333.07	45721972.0
333.32	45746116.0
333.57	31130528.0
333.82	41569430.0
334.07	38085748.0
334.32	43308304.0
334.57	43050720.0
334.82	33043496.0
335.07	37894876.0
335.32	44125144.0
335.57	41651760.0
335.82	35942548.0
336.07	15184273.0
336.32	38484770.0
336.57	40753980.0
336.82	31237226.0
337.07	23879440.0
337.32	22774562.0
337.57	45022572.0
337.82	39486044.0
338.07	28693018.0
338.32	32742994.0
338.57	45610290.0
338.82	33197360.0
339.07	42686816.0
339.32	25027308.0
339.57	40387824.0
339.82	39814850.0
340.07	47971004.0
340.32	35446196.0
340.57	32809784.0
340.82	34558660.0
341.07	40753816.0
341.32	27071016.0
341.57	28343702.0
341.82	34721400.0
342.07	42079570.0
342.32	30852608.0
342.57	37763228.0
342.82	40504004.0
343.07	46648188.0
343.32	36915900.0
343.57	50706268.0
343.82	35555610.0
344.07	23385464.0
344.32	22235404.0
344.57	34597884.0
344.82	44172076.0
345.07	49982748.0
345.32	32062588.0
345.57	53764436.0
345.82	33005062.0
346.07	27837714.0
346.32	43041190.0
346.57	35545604.0
346.82	45391256.0
347.07	50971988.0
347.32	33174702.0
347.57	27376874.0
347.82	38105080.0
348.07	49817212.0
348.32	39997680.0
348.57	50660932.0
348.82	48863600.0
349.07	33948016.0
349.32	35885880.0
349.57	38258310.0
349.82	40693930.0
350.07	48052710.0
350.32	54547336.0
350.57	47590904.0
350.82	45817450.0
351.07	39138670.0
351.32	39266036.0
351.57	38572884.0
351.82	47071644.0
352.07	33716240.0
352.32	34893490.0
352.57	23169194.0
352.82	47367350.0
353.07	43627324.0
353.32	43281412.0
353.57	45395416.0
353.82	49935700.0
354.07	53980360.0
354.32	52380852.0
354.57	53217236.0
354.82	43863870.0
355.07	49345460.0
355.32	38924964.0
355.57	41105348.0
355.82	50328740.0
356.07	37741704.0
356.32	60831444.0
356.57	24911744.0
356.82	39830624.0
357.07	28698990.0
357.32	35800024.0
357.57	40457196.0
357.82	39346536.0
358.07	26440238.0
358.32	42531704.0
358.57	21047678.0
358.82	30761804.0
359.07	44792790.0
359.32	44717484.0
359.57	43244308.0
359.82	54681870.0
360.07	56637144.0
360.32	36525080.0
360.57	35743820.0
360.82	35256196.0
361.07	36650070.0
361.32	40575836.0
361.57	49332156.0
361.82	25840950.0
362.07	37363396.0
362.32	46522510.0
362.57	54538492.0
362.82	57617892.0
363.07	31314780.0
363.32	41327692.0
363.57	33397224.0
363.82	47192428.0
364.07	54619470.0
364.32	46320080.0
364.57	43229784.0
364.82	28841160.0
365.07	38978268.0
365.32	57156116.0
365.57	52593830.0
365.82	60094956.0
366.07	52780440.0
366.32	52512600.0
366.57	48041744.0
366.82	46594076.0
367.07	49410324.0
367.32	55286628.0
367.57	55464748.0
367.82	50118610.0
368.07	38732028.0
368.32	45340668.0
368.57	40927180.0
368.82	40241840.0
369.07	54268668.0
369.32	49103196.0
369.57	57416628.0
369.82	55737610.0
370.07	58096656.0
370.32	40353536.0
370.57	37669996.0
370.82	36578030.0
371.07	47722700.0
371.32	59739624.0
371.57	59632680.0
371.82	52120630.0
372.07	21878944.0
372.32	39419548.0
372.57	55497620.0
372.82	42604084.0
373.07	49066280.0
373.32	30703706.0
373.57	21296250.0
373.82	33838900.0
374.07	55006644.0
374.32	39785396.0
374.57	28453722.0
374.82	26381726.0
375.07	34800016.0
375.32	56875684.0
375.57	69677340.0
375.82	30678254.0
376.07	45683124.0
376.32	49387280.0
376.57	58364900.0
376.82	46182132.0
377.07	42312412.0
377.32	64530564.0
377.57	58203780.0
377.82	55638990.0
378.07	82108930.0
378.32	67252216.0
378.57	70213610.0
378.82	50784628.0
379.07	52990224.0
379.32	55519600.0
379.57	50863404.0
379.82	35005012.0
380.07	54684132.0
380.32	76035570.0
380.57	56057188.0
380.82	59779336.0
381.07	71851740.0
381.32	66563200.0
381.57	38986416.0
381.82	66633700.0
382.07	29939706.0
382.32	54180196.0
382.57	30268640.0
382.82	34200650.0
383.07	38412020.0
383.32	22219448.0
383.57	35542430.0
383.82	26439502.0
384.07	34679508.0
384.32	55316290.0
384.57	60088680.0
384.82	75266550.0
385.07	61613930.0
385.32	70527950.0
385.57	53505996.0
385.82	45907310.0
386.07	42692384.0
386.32	63865456.0
386.57	59483370.0
386.82	59012764.0
387.07	57574810.0
387.32	47450772.0
387.57	61923040.0
387.82	42463316.0
388.07	75143280.0
388.32	68027480.0
388.57	38189304.0
388.82	39584964.0
389.07	50474170.0
389.32	56894188.0
389.57	51608204.0
389.82	63539692.0
390.07	58742150.0
390.32	50659464.0
390.57	49443740.0
390.82	66594184.0
391.07	63944450.0
391.32	68364110.0
391.57	69526810.0
391.82	63830704.0
392.07	46727636.0
392.32	59642236.0
392.57	60432270.0
392.82	38594800.0
393.07	24090146.0
393.32	13739781.0
393.57	22090612.0
393.82	38767256.0
394.07	57490770.0
394.32	47209316.0
394.57	72240100.0
394.82	57477720.0
395.07	72581570.0
395.32	67625740.0
395.57	67787944.0
395.82	76481736.0
396.07	55845372.0
396.32	45469660.0
396.57	30102144.0
396.82	14526356.0
397.07	27207354.0
397.32	41307416.0
397.57	53207880.0
397.82	76452480.0
398.07	75222230.0
398.32	67965240.0
398.57	71931750.0
398.82	88747704.0
399.07	75005144.0
399.32	81420904.0
399.57	72861510.0
399.82	64726784.0
400.07	82535980.0
400.32	85215060.0
400.57	62890892.0
400.82	89602760.0
401.07	75195670.0
401.32	80414570.0
401.57	80259770.0
401.82	83344670.0
402.07	76677544.0
402.32	80297944.0
402.57	70886820.0
402.82	86783330.0
403.07	59560428.0
403.32	61145810.0
403.57	68190770.0
403.82	86986410.0
404.07	78783860.0
404.32	81733640.0
404.57	50905828.0
404.82	80919900.0
405.07	85575470.0
405.32	80655130.0
405.57	78996824.0
405.82	67789310.0
406.07	87075890.0
406.32	53747940.0
406.57	73692410.0
406.82	76901420.0
407.07	61610364.0
407.32	82311800.0
407.57	66971620.0
407.82	68807310.0
408.07	86060970.0
408.32	73381130.0
408.57	78374170.0
408.82	89711170.0
409.07	87388520.0
409.32	88193190.0
409.57	77413230.0
409.82004	78379864.0
410.07004	54444690.0
410.32004	62229708.0
410.57004	76176450.0
410.82004	80649130.0
411.07004	83466330.0
411.32004	84586680.0
411.57004	85440420.0
411.82004	78343240.0
412.07004	86012810.0
412.32004	84325416.0
412.57004	85254680.0
412.82004	72557690.0
413.07004	84669630.0
413.32004	64706390.0
413.57004	82285380.0
413.82004	84274590.0
414.07004	85783880.0
414.32004	63971304.0
414.57004	90113370.0
414.82004	81486456.0
415.07004	79720440.0
415.32004	75878750.0
415.57004	76603420.0
415.82004	79798210.0
416.07004	86293260.0
416.32004	82152410.0
416.57004	90573710.0
416.82004	81398380.0
417.07004	80121250.0
417.32004	68399410.0
417.57004	72929850.0
417.82004	73822860.0
418.07004	81102550.0
418.32004	86384056.0
418.57004	76073330.0
418.82004	70581220.0
419.07004	77453170.0
419.32004	90347800.0
419.57004	69738040.0
419.82004	69710640.0
420.07004	71737920.0
420.32004	68603816.0
420.57004	74253840.0
420.82004	90379784.0
421.07004	79293420.0
421.32004	85660870.0
421.57004	73700320.0
421.82004	74482740.0
422.07004	90965704.0
422.32004	76897440.0
422.57004	51704576.0
422.82004	72102920.0
423.07004	82511090.0
423.32004	77555460.0
423.57004	71479624.0
423.82004	72621460.0
424.07004	76907640.0
424.32004	70043784.0
424.57004	80390170.0
424.82004	69084350.0
425.07004	65782404.0
425.32004	72465410.0
425.57004	74050330.0
425.82004	80874260.0
426.07004	59360790.0
426.32004	76391030.0
426.57004	75467250.0
426.82004	73532810.0
427.07004	47853130.0
427.32004	62362364.0
427.57004	63216316.0
427.82004	79709710.0
428.07004	64128150.0
428.32004	71055870.0
428.57004	60340420.0
428.82004	66446268.0
429.07004	54492690.0
429.32004	68383690.0
429.57004	63104268.0
429.82004	49147964.0
430.07004	43202052.0
430.32004	43284820.0
430.57004	46749216.0
430.82004	37494972.0
431.07004	41926020.0
431.32004	55317250.0
431.57004	81486890.0
431.82004	89208130.0
432.07004	80115624.0
432.32004	61996776.0
432.57004	50416160.0
432.82004	79207260.0
433.07004	78919450.0
433.32004	81203160.0
433.57004	85964650.0
433.82004	57070816.0
434.07004	46494092.0
434.32004	69064490.0
434.57004	78055660.0
434.82004	74178350.0
435.07004	65304990.0
435.32004	72454020.0
435.57004	72282270.0
435.82004	84079690.0
436.07004	79031370.0
436.32004	77475540.0
436.57004	86659180.0
436.82004	79757950.0
437.07004	72542940.0
437.32004	77914040.0
437.57004	70005380.0
437.82004	78942590.0
438.07004	84846380.0
438.32004	51540204.0
438.57004	68901190.0
438.82004	73107944.0
439.07004	66779370.0
439.32004	77799000.0
439.57004	71538800.0
439.82004	80062600.0
440.07004	65194736.0
440.32004	81597820.0
440.57004	70059250.0
440.82004	72799590.0
441.07004	84163950.0
441.32004	85773820.0
441.57004	70804600.0
441.82004	79825540.0
442.07004	80913020.0
442.32004	78587190.0
442.57004	86022616.0
442.82004	84139560.0
443.07004	77763980.0
443.32004	84094750.0
443.57004	74028300.0
443.82004	92615120.0
444.07004	82489560.0
444.32004	70408216.0
444.57004	87183810.0
444.82004	87780300.0
445.07004	82407944.0
445.32004	83593870.0
445.57004	65135610.0
445.82004	72830340.0
446.07004	76078300.0
446.32004	84931810.0
446.57004	78483540.0
446.82004	82277340.0
447.07004	79336320.0
447.32004	90265416.0
447.57004	89662050.0
447.82004	96692020.0
448.07004	80608640.0
448.32004	77390290.0
448.57004	94937060.0
448.82004	83186610.0
449.07004	83049656.0
449.32004	92035790.0
449.57004	79593000.0
449.82004	87862640.0
450.07004	89092240.0
450.32004	96565720.0
450.57004	96055384.0
450.82004	93722456.0
451.07004	95806300.0
451.32004	94382680.0
451.57004	90094980.0
451.82004	87187820.0
452.07004	92894984.0
452.32004	87267736.0
452.57004	79871960.0
452.82004	77683320.0
453.07004	82600790.0
453.32004	84633890.0
453.57004	78915920.0
453.82004	93984620.0
454.07004	86156630.0
454.32004	93925170.0
454.57004	83272984.0
454.82004	84947840.0
455.07004	86411600.0
455.32004	88828360.0
455.57004	80999130.0
455.82004	93996620.0
456.07004	94303130.0
456.32004	92480830.0
456.57004	88674190.0
456.82004	93878420.0
457.07004	84973580.0
457.32004	90783130.0
457.57004	92460900.0
457.82004	88975330.0
458.07004	80291020.0
458.32004	84989370.0
458.57004	84557384.0
458.82004	88050490.0
459.07004	85865830.0
459.32004	84893016.0
459.57004	84576580.0
459.82004	89247600.0
460.07004	80149440.0
460.32004	86609110.0
460.57004	87765400.0
460.82004	91931620.0
461.07004	86893570.0
461.32004	85408536.0
461.57004	88710860.0
461.82004	83968830.0
462.07004	91281380.0
462.32004	91827900.0
462.57004	87846744.0
462.82004	91085980.0
463.07004	93503960.0
463.32004	86184810.0
463.57004	91511144.0
463.82004	86508930.0
464.07004	94255500.0
464.32004	93941490.0
464.57004	89449580.0
464.82004	84052776.0
465.07004	92404360.0
465.32004	90581140.0
465.57004	83840020.0
465.82004	91996860.0
466.07004	95445530.0
466.32004	92266900.0
466.57004	88459440.0
466.82004	74907896.0
467.07004	93697570.0
467.32004	91174420.0
467.57004	89499790.0
467.82004	87233416.0
468.07004	86984504.0
468.32004	92349070.0
468.57004	85110100.0
468.82004	92772590.0
469.07004	85105560.0
469.32004	92949080.0
469.57004	93766136.0
469.82004	81820920.0
470.07004	83487064.0
470.32004	79559460.0
470.57004	90948360.0
470.82004	82015020.0
471.07004	87246020.0
471.32004	78955620.0
471.57004	88907930.0
471.82004	94709030.0
472.07004	93225576.0
472.32004	88987240.0
472.57004	95785220.0
472.82004	81659720.0
473.07004	83967704.0
473.32004	86298230.0
473.57004	87618450.0
473.82004	89605590.0
474.07004	88581224.0
474.32004	92215020.0
474.57004	90663090.0
474.82004	95458370.0
475.07004	94208440.0
475.32004	88925200.0
475.57004	86341710.0
475.82004	89217380.0
476.07004	93230296.0
476.32004	85840744.0
476.57004	84852970.0
476.82004	90391970.0
477.07004	91906536.0
477.32004	90550310.0
477.57004	93204060.0
477.82004	97181944.0
478.07004	91209660.0
478.32004	89830260.0
478.57004	85621864.0
478.82004	87923500.0
479.07004	89994220.0
479.32004	88317850.0
479.57004	93806450.0
479.82004	88813920.0
480.07004	88525230.0
480.32004	92311624.0
480.57004	88987070.0
480.82004	86319600.0
481.07004	89188216.0
481.32004	87075760.0
481.57004	92655790.0
481.82004	89047860.0
482.07004	90587150.0
482.32004	84641270.0
482.57004	92152060.0
482.82004	88516420.0
483.07004	90514824.0
483.32004	89759784.0
483.57004	84704680.0
483.82004	88960590.0
484.07004	76927384.0
484.32004	86337160.0
484.57004	89052000.0
484.82004	86941140.0
485.07004	88930610.0
485.32004	87461970.0
485.57004	75851390.0
485.82004	78018310.0
486.07004	50590380.0
486.32004	67343760.0
486.57004	77643064.0
486.82004	83481990.0
487.07004	75679830.0
487.32004	79741070.0
487.57004	83666280.0
487.82004	81511030.0
488.07004	87120660.0
488.32004	89351230.0
488.57004	83065710.0
488.82004	76008620.0
489.07004	73954940.0
489.32004	89174264.0
489.57004	91305060.0
489.82004	94911880.0
490.07004	86872380.0
490.32004	79647830.0
490.57004	93766810.0
490.82004	86664970.0
491.07004	79052680.0
491.32004	85219220.0
491.57004	91018450.0
491.82004	74447480.0
492.07004	77993976.0
492.32004	84956910.0
492.57004	83263640.0
492.82004	91267150.0
493.07004	92510264.0
493.32004	81210880.0
493.57004	87693290.0
493.82004	78484590.0
494.07004	83727064.0
494.32004	88301790.0
494.57004	86759064.0
494.82004	90639350.0
495.07004	91675180.0
495.32004	90522370.0
495.57004	87376410.0
495.82004	72962020.0
496.07004	94158930.0
496.32004	90688510.0
496.57004	85365220.0
496.82004	86583816.0
497.07004	86008240.0
497.32004	89654460.0
497.57004	90359310.0
497.82004	85766024.0
498.07004	79620130.0
498.32004	69244140.0
498.57004	80390040.0
498.82004	86921750.0
499.07004	85942100.0
499.32004	81022300.0
499.57004	91400710.0
499.82004	85393150.0
500.07004	79739816.0
500.32004	84768664.0
500.57004	78128450.0
500.82004	85936510.0
501.07004	84115180.0
501.32004	68689110.0
501.57004	80445050.0
501.82004	78011890.0
502.07004	82315080.0
502.32004	80931400.0
502.57004	88776140.0
502.82004	84064540.0
503.07004	87355304.0
503.32004	92657920.0
503.57004	80264190.0
503.82004	82670450.0
504.07004	65953268.0
504.32004	86632890.0
504.57004	93561330.0
504.82004	83921590.0
505.07004	74384330.0
505.32004	89997560.0
505.57004	91502400.0
505.82004	90932610.0
506.07004	89179464.0
506.32004	91842020.0
506.57004	80084210.0
506.82004	81105810.0
507.07004	92120000.0
507.32004	84019896.0
507.57004	80335304.0
507.82004	85278440.0
508.07004	72826240.0
508.32004	74130640.0
508.57004	88012210.0
508.82004	83250980.0
509.07004	88075270.0
509.32004	89236650.0
509.57004	89591520.0
509.82004	75878490.0
510.07004	84571820.0
510.32004	86948800.0
510.57004	87708250.0
510.82004	77894120.0
511.07004	76610260.0
511.32004	88867130.0
511.57004	85012070.0
511.82004	88638360.0
512.07	85536776.0
512.32	80642570.0
512.57	75196640.0
512.82	76822560.0
513.07	83980080.0
513.32	82316090.0
513.57	87966240.0
513.82	73936520.0
514.07	83139640.0
514.32	76103380.0
514.57	81972850.0
514.82	80743810.0
515.07	78075010.0
515.32	80816620.0
515.57	83165370.0
515.82	85728780.0
516.07	87264660.0
516.32	80979200.0
516.57	73222456.0
516.82	54898196.0
517.07	75467730.0
517.32	54920144.0
517.57	84067630.0
517.82	83395510.0
518.07	83405830.0
518.32	49988390.0
518.57	76403810.0
518.82	81495410.0
519.07	82242230.0
519.32	78167440.0
519.57	72571410.0
519.82	81452430.0
520.07	87872650.0
520.32	82965580.0
520.57	70879720.0
520.82	76040560.0
521.07	82728130.0
521.32	87923016.0
521.57	76021050.0
521.82	81391660.0
522.07	84747970.0
522.32	86238360.0
522.57	75603150.0
522.82	74982100.0
523.07	83288910.0
523.32	79687016.0
523.57	77022080.0
523.82	87028860.0
524.07	87701590.0
524.32	81955860.0
524.57	84192790.0
524.82	83015530.0
525.07	81910616.0
525.32	87104504.0
525.57	79941860.0
525.82	81106710.0
526.07	81776340.0
526.32	70788760.0
526.57	69581030.0
526.82	72649144.0
527.07	61755804.0
527.32	76109530.0
527.57	75981576.0
527.82	86052136.0
528.07	79361140.0
528.32	75949800.0
528.57	86438424.0
528.82	86816920.0
529.07	89529176.0
529.32	82154210.0
529.57	82737860.0
529.82	72877370.0
530.07	84008180.0
530.32	83365544.0
530.57	88144740.0
530.82	83552030.0
531.07	87199790.0
531.32	86604180.0
531.57	79246590.0
531.82	86206830.0
532.07	85854630.0
532.32	78401750.0
532.57	81076510.0
532.82	59583990.0
533.07	84197950.0
533.32	71206190.0
533.57	83121704.0
533.82	78765850.0
534.07	75350930.0
534.32	86842710.0
534.57	80006780.0
534.82	81100560.0
535.07	84936530.0
535.32	83980920.0
535.57	87782990.0
535.82	87521780.0
536.07	86846410.0
536.32	85889810.0
536.57	79270060.0
536.82	82194890.0
537.07	65596710.0
537.32	85337064.0
537.57	88037870.0
537.82	84125010.0
538.07	83255270.0
538.32	77829340.0
538.57	88008776.0
538.82	83947600.0
539.07	82018890.0
539.32	82337470.0
539.57	81401850.0
539.82	74373040.0
540.07	80136230.0
540.32	75697410.0
540.57	67401510.0
540.82	82844270.0
541.07	74072070.0
541.32	82731224.0
541.57	80128744.0
541.82	83291320.0
542.07	82112100.0
542.32	79609170.0
542.57	84014056.0
542.82	84525140.0
543.07	74331950.0
543.32	77676220.0
543.57	75045900.0
543.82	86371400.0
544.07	85599944.0
544.32	86124140.0
544.57	72300456.0
544.82	81512360.0
545.07	86809030.0
545.32	83866200.0
545.57	73913624.0
545.82	85411260.0
546.07	84403540.0
546.32	76439720.0
546.57	85549740.0
546.82	84840810.0
547.07	84385130.0
547.32	81228190.0
547.57	73070740.0
547.82	80077200.0
548.07	82107890.0
548.32	84688380.0
548.57	86542610.0
548.82	74397020.0
549.07	83627850.0
549.32	79180650.0
549.57	83335430.0
549.82	80004260.0
550.07	80992570.0
550.32	82286030.0
550.57	77335320.0
550.82	84531496.0
551.07	82306424.0
551.32	75401150.0
551.57	82840910.0
551.82	84685690.0
552.07	82925490.0
552.32	83303850.0
552.57	79608170.0
552.82	74464270.0
553.07	84152300.0
553.32	82172616.0
553.57	79748860.0
553.82	84723070.0
554.07	85640140.0
554.32	83477350.0
554.57	83685256.0
554.82	84525350.0
555.07	84171260.0
555.32	81400610.0
555.57	80151080.0
555.82	82259350.0
556.07	81898980.0
556.32	76438940.0
556.57	81227530.0
556.82	81199920.0
557.07	79257256.0
557.32	76188520.0
557.57	78507680.0
557.82	82831220.0
558.07	82891050.0
558.32	79194480.0
558.57	75542610.0
558.82	73028750.0
559.07	80121160.0
559.32	76765220.0
559.57	79181020.0
559.82	74784520.0
560.07	76338870.0
560.32	76844744.0
560.57	83872310.0
560.82	83227390.0
561.07	83704020.0
561.32	83885270.0
561.57	71642940.0
561.82	80773410.0
562.07	81002610.0
562.32	82147450.0
562.57	78073990.0
562.82	82082780.0
563.07	83689680.0
563.32	81242460.0
563.57	82413790.0
563.82	80550780.0
564.07	79263480.0
564.32	80111784.0
564.57	82009150.0
564.82	82203570.0
565.07	79203230.0
565.32	81269610.0
565.57	76857290.0
565.82	71697860.0
566.07	80036190.0
566.32	77220310.0
566.57	80368744.0
566.82	79603300.0
567.07	80559640.0
567.32	83414000.0
567.57	81145060.0
567.82	80713250.0
568.07	83113180.0
568.32	75466020.0
568.57	78315090.0
568.82	79497110.0
569.07	80015390.0
569.32	82061720.0
569.57	81363460.0
569.82	80947544.0
570.07	77863130.0
570.32	79993540.0
570.57	78372750.0
570.82	72215950.0
571.07	73182776.0
571.32	80655280.0
571.57	80518480.0
571.82	80382280.0
572.07	81906250.0
572.32	82705100.0
572.57	82884824.0
572.82	80966430.0
573.07	80849704.0
573.32	82462020.0
573.57	82547360.0
573.82	82076970.0
574.07	81369520.0
574.32	81205230.0
574.57	82469990.0
574.82	76609440.0
575.07	82119410.0
575.32	73350870.0
575.57	78979360.0
575.82	81297304.0
576.07	78706770.0
576.32	77603380.0
576.57	82440390.0
576.82	81904220.0
577.07	81513340.0
577.32	80159930.0
577.57	80417720.0
577.82	81862500.0
578.07	78091464.0
578.32	77788810.0
578.57	76137970.0
578.82	79605976.0
579.07	78091250.0
579.32	79730500.0
579.57	81618770.0
579.82	79255144.0
580.07	81560160.0
580.32	79784616.0
580.57	78042590.0
580.82	79197600.0
581.07	80806856.0
581.32	80731830.0
581.57	77775950.0
581.82	81466380.0
582.07	80965390.0
582.32	80881760.0
582.57	81172904.0
582.82	80759540.0
583.07	78920260.0
583.32	80888160.0
583.57	79304280.0
583.82	79851430.0
584.07	80526170.0
584.32	80999220.0
584.57	80512570.0
584.82	78345740.0
585.07	80528270.0
585.32	75659790.0
585.57	78655720.0
585.82	73648720.0
586.07	77700800.0
586.32	76875000.0
586.57	77407330.0
586.82	78118710.0
587.07	80397896.0
587.32	79634030.0
587.57	80327740.0
587.82	79559090.0
588.07	78768500.0
588.32	77916060.0
588.57	79761620.0
588.82	76540330.0
589.07	60082900.0
589.32	75815810.0
589.57	64255460.0
589.82	76931930.0
590.07	79693680.0
590.32	78243576.0
590.57	78256360.0
590.82	79793736.0
591.07	79453640.0
591.32	74758904.0
591.57	76795100.0
591.82	78584000.0
592.07	79365020.0
592.32	77673210.0
592.57	79543400.0
592.82	76702936.0
593.07	73641720.0
593.32	78825680.0
593.57	75850560.0
593.82	78819360.0
594.07	77627390.0
594.32	78226530.0
594.57	79167040.0
594.82	75152750.0
595.07	78903310.0
595.32	75384320.0
595.57	77314824.0
595.82	78263320.0
596.07	78208904.0
596.32	78623450.0
596.57	77348180.0
596.82	78580930.0
597.07	78566860.0
597.32	78803400.0
597.57	73468344.0
597.82	77029730.0
598.07	77844410.0
598.32	77005430.0
598.57	74726700.0
598.82	75742330.0
599.07	76529704.0
599.32	77951120.0
599.57	76944150.0
599.82	76564840.0
600.07	77697190.0
600.32	74725910.0
600.57	77064750.0
600.82	72077280.0
601.07	77714104.0
601.32	73442390.0
601.57	74720504.0
601.82	77347740.0
602.07	72271970.0
602.32	73592264.0
602.57	77364540.0
602.82	74266280.0
603.07	74216970.0
603.32	77467940.0
603.57	77551784.0
603.82	77571064.0
604.07	77106180.0
604.32	77324790.0
604.57	77116120.0
604.82	77404180.0
605.07	77280070.0
605.32	75771544.0
605.57	73545940.0
605.82	77045910.0
606.07	76944230.0
606.32	75310710.0
606.57	72880900.0
606.82	77091930.0
607.07	76769670.0
607.32	77221144.0
607.57	76838240.0
607.82	73351860.0
608.07	75560090.0
608.32	75093980.0
608.57	73843550.0
608.82	76205460.0
609.07	74363970.0
609.32	74162040.0
609.57	75888580.0
609.82	75941970.0
610.07	76094900.0
610.32	67175380.0
610.57	75383300.0
610.82	72795100.0
611.07	75608180.0
611.32	75199704.0
611.57	74597736.0
611.82	76039576.0
612.07	74218200.0
612.32	69750140.0
612.57	73424350.0
612.82	74426750.0
613.07	71173990.0
613.32	75789896.0
613.57	70197640.0
613.82	68208540.0
614.07	71876600.0
614.32	73349730.0
614.57	72702090.0
614.82	72880160.0
615.07	74035170.0
615.32	74222530.0
615.57	70606264.0
615.82	70435980.0
616.07	71077820.0
616.32	65421532.0
616.57	69534590.0
616.82	72480280.0
617.07	69361890.0
617.32	73162300.0
617.57	72061064.0
617.82	74365180.0
618.07	73478710.0
618.32	75022070.0
618.57	74191120.0
618.82	73077270.0
619.07	67412056.0
619.32	74699110.0
619.57	73449890.0
619.82	74385620.0
620.07	72436540.0
620.32	74973870.0
620.57	74406990.0
620.82	73907980.0
621.07	74674856.0
621.32	70956010.0
621.57	70366190.0
621.82	71404480.0
622.07	72515130.0
622.32	73555160.0
622.57	73245260.0
622.82	73437180.0
623.07	68851780.0
623.32	71382920.0
623.57	74235720.0
623.82	69188184.0
624.07	72192540.0
624.32	69115730.0
624.57	67557280.0
624.82	71969490.0
625.07	73020860.0
625.32	64414836.0
625.57	69770700.0
625.82	69409950.0
626.07	71914220.0
626.32	73544550.0
626.57	70266490.0
626.82	72040696.0
627.07	71579304.0
627.32	73116410.0
627.57	70427850.0
627.82	68477150.0
628.07	69252430.0
628.32	70263260.0
628.57	71265780.0
628.82	72675144.0
629.07	70605310.0
629.32	70044950.0
629.57	72005580.0
629.82	70957840.0
630.07	68649130.0
630.32	70046430.0
630.57	72407120.0
630.82	72887944.0
631.07	71750390.0
631.32	72711256.0
631.57	64385948.0
631.82	66763276.0
632.07	71959170.0
632.32	69652640.0
632.57	72376776.0
632.82	71802870.0
633.07	71581540.0
633.32	72176720.0
633.57	65882720.0
633.82	70600100.0
634.07	72588460.0
634.32	69993290.0
634.57	72407890.0
634.82	70909800.0
635.07	71952216.0
635.32	71371440.0
635.57	69362910.0
635.82	69697130.0
636.07	70980730.0
636.32	68398150.0
636.57	70422400.0
636.82	71509330.0
637.07	70060270.0
637.32	71501096.0
637.57	71612160.0
637.82	70959200.0
638.07	69478070.0
638.32	71500090.0
638.57	69624070.0
638.82	71692710.0
639.07	71029230.0
639.32	66632660.0
639.57	71132930.0
639.82	70664590.0
640.07	63775852.0
640.32	71401330.0
640.57	71443950.0
640.82	67325760.0
641.07	67065148.0
641.32	70155464.0
641.57	68631256.0
641.82	70000100.0
642.07	64283716.0
642.32	70695896.0
642.57	70598580.0
642.82	70946104.0
643.07	66985852.0
643.32	69531680.0
643.57	70476240.0
643.82	64446580.0
644.07	70166600.0
644.32	70092136.0
644.57	70612060.0
644.82	70580136.0
645.07	66457516.0
645.32	70544580.0
645.57	66257692.0
645.82	69336830.0
646.07	69447896.0
646.32	62931012.0
646.57	70242500.0
646.82	68294744.0
647.07	67390980.0
647.32	69938580.0
647.57	66908470.0
647.82	69762056.0
648.07	69704830.0
648.32	67943730.0
648.57	70010420.0
648.82	69904904.0
649.07	68514250.0
649.32	64669180.0
649.57	58586910.0
649.82	67207450.0
650.07	66897920.0
650.32	67114650.0
650.57	69675960.0
650.82	69175600.0
651.07	69029200.0
651.32	69280936.0
651.57	68016830.0
651.82	67714930.0
652.07	69191064.0
652.32	69147470.0
652.57	68474880.0
652.82	68435420.0
653.07	68849070.0
653.32	67666780.0
653.57	68744280.0
653.82	67110930.0
654.07	68283176.0
654.32	68147170.0
654.57	64365476.0
654.82	67001064.0
655.07	66005344.0
655.32	65456340.0
655.57	62701370.0
655.82	61805212.0
656.07	54340024.0
656.32	39712956.0
656.57	58019764.0
656.82	62765444.0
657.07	64672640.0
657.32	64853650.0
657.57	65060096.0
657.82	67286296.0
658.07	66995596.0
658.32	67416850.0
658.57	66620172.0
658.82	67639800.0
659.07	68011600.0
659.32	61866410.0
659.57	67381520.0
659.82	67446664.0
660.07	68249030.0
660.32	67975460.0
660.57	66358980.0
660.82	65744480.0
661.07	67238160.0
661.32	67760110.0
661.57	68028920.0
661.82	67796900.0
662.07	67928570.0
662.32	67115304.0
662.57	67151624.0
662.82	67410800.0
663.07	66078884.0
663.32	62793884.0
663.57	66934860.0
663.82	67644070.0
664.07	66095212.0
664.32	65366840.0
664.57	67468424.0
664.82	67256504.0
665.07	67626080.0
665.32	66987096.0
665.57	67055470.0
665.82	67398740.0
666.07	67182616.0
666.32	63659420.0
666.57	66180692.0
666.82	66699110.0
667.07	67199390.0
667.32	67112020.0
667.57	67181460.0
667.82	62883628.0
668.07	66839950.0
668.32	66763652.0
668.57	67146616.0
668.82	66660132.0
669.07	67097270.0
669.32	66607730.0
669.57	64670820.0
669.82	64692160.0
670.07	66888960.0
670.32	65763268.0
670.57	65741124.0
670.82	66295376.0
671.07	65603530.0
671.32	64192616.0
671.57	65457456.0
671.82	63517430.0
672.07	65319204.0
672.32	66060132.0
672.57	64639028.0
672.82	66358000.0
673.07	65259396.0
673.32	65343696.0
673.57	66239364.0
673.82	65706736.0
674.07	65410564.0
674.32	65319372.0
674.57	65734130.0
674.82	65389116.0
675.07	63888788.0
675.32	64392172.0
675.57	65882420.0
675.82	65461052.0
676.07	65744600.0
676.32	65441044.0
676.57	64657090.0
676.82	63554996.0
677.07	64310304.0
677.32	64338270.0
677.57	65266244.0
677.82	64995388.0
678.07	65371572.0
678.32	64448892.0
678.57	64026640.0
678.82	64412252.0
679.07	65139932.0
679.32	64477844.0
679.57	64200660.0
679.82	64033720.0
680.07	64055588.0
680.32	64552772.0
680.57	63854936.0
680.82	64586344.0
681.07	63319090.0
681.32	64183716.0
681.57	63941170.0
681.82	64980650.0
682.07	62949068.0
682.32	64812324.0
682.57	64810696.0
682.82	63080676.0
683.07	63605784.0
683.32	64546440.0
683.57	64731460.0
683.82	63118444.0
684.07	61681024.0
684.32	61820816.0
684.57	64353560.0
684.82	64201652.0
685.07	63969840.0
685.32	64478500.0
685.57	60864504.0
685.82	62443708.0
686.07	62958148.0
686.32	63942524.0
686.57	64382604.0
686.82	63651990.0
687.07	64229040.0
687.32	63275470.0
687.57	63843140.0
687.82	64233916.0
688.07	63197890.0
688.32	62240880.0
688.57	63141396.0
688.82	63080704.0
689.07	63898156.0
689.32	63895536.0
689.57	63077892.0
689.82	63298880.0
690.07	63857372.0
690.32	63791310.0
690.57	62841920.0
690.82	63595510.0
691.07	62979176.0
691.32	63269716.0
691.57	60061464.0
691.82	63009444.0
692.07	62492584.0
692.32	62406020.0
692.57	61953704.0
692.82	63204836.0
693.07	62995436.0
693.32	62004616.0
693.57	62452824.0
693.82	62992788.0
694.07	63210400.0
694.32	62591604.0
694.57	60598924.0
694.82	62194816.0
695.07	61465330.0
695.32	62457650.0
695.57	61799984.0
695.82	62793360.0
696.07	62727200.0
696.32	62632790.0
696.57	61249236.0
696.82	62632290.0
697.07	61917680.0
697.32	62730500.0
697.57	61323484.0
697.82	58127704.0
698.07	61064340.0
698.32	62604668.0
698.57	62330420.0
698.82	61875400.0
699.07	62234456.0
699.32	61886250.0
699.57	61449340.0
699.82	61315620.0
700.07	59788204.0
700.32	60848536.0
700.57	60374044.0
700.82	61215924.0
701.07	60627680.0
701.32	60279380.0
701.57	58703428.0
701.82	60500508.0
702.07	61984204.0
702.32	58138324.0
702.57	60263376.0
702.82	59838460.0
703.07	61019184.0
703.32	61596160.0
703.57	60504580.0
703.82	58754236.0
704.07	61691870.0
704.32	61754332.0
704.57	60948372.0
704.82	61682410.0
705.07	61622268.0
705.32	59699550.0
705.57	60845104.0
705.82	61287024.0
706.07	59997500.0
706.32	60829320.0
706.57	61170680.0
706.82	58542092.0
707.07	60228196.0
707.32	60484884.0
707.57	61149964.0
707.82	61175730.0
708.07	60719944.0
708.32	59797604.0
708.57	57913496.0
708.82	60984424.0
709.07	58898024.0
709.32	60553304.0
709.57	60411544.0
709.82	60269896.0
710.07	60458736.0
710.32	60715948.0
710.57	60371812.0
710.82	59018110.0
711.07	59297150.0
711.32	58419304.0
711.57	59119256.0
711.82	59689156.0
712.07	59655756.0
712.32	57674892.0
712.57	60238350.0
712.82	58571556.0
713.07	57856532.0
713.32	58106424.0
713.57	60165196.0
713.82	60107976.0
714.07	60119748.0
714.32	58917400.0
714.57	59260504.0
714.82	55219904.0
715.07	59707332.0
715.32	59856412.0
715.57	58912324.0
715.82	59634908.0
716.07	59552788.0
716.32	57801636.0
716.57	55293772.0
716.82	59875460.0
717.07	59721660.0
717.32	59777108.0
717.57	57983840.0
717.82	59649930.0
718.07	56027456.0
718.32	58777190.0
718.57	58023452.0
718.82	53885096.0
719.07	57746830.0
719.32	56425264.0
719.57	58834016.0
719.82	58260836.0
720.07	59285556.0
720.32	57379972.0
720.57	59152570.0
720.82	53100068.0
721.07	58931028.0
721.32	58246916.0
721.57	58332370.0
721.82	58799510.0
722.07	57474290.0
722.32	56251990.0
722.57	57776890.0
722.82	58139190.0
723.07	58995656.0
723.32	59023696.0
723.57	57738780.0
723.82	58518600.0
724.07	58224176.0
724.32	58727916.0
724.57	56802188.0
724.82	58761944.0
725.07	56174188.0
725.32	58266124.0
725.57	58253270.0
725.82	58221840.0
726.07	55742052.0
726.32	58245690.0
726.57	58195300.0
726.82	58419052.0
727.07	58283160.0
727.32	57499110.0
727.57	56991830.0
727.82	57434224.0
728.07	58231212.0
728.32	56367596.0
728.57	56228696.0
728.82	53536624.0
729.07	55434964.0
729.32	55862900.0
729.57	57059148.0
729.82	57122400.0
730.07	57270024.0
730.32	57283990.0
730.57	56855012.0
730.82	55507276.0
731.07	55599216.0
731.32	57773440.0
731.57	57821270.0
731.82	57342230.0
732.07	56205170.0
732.32	57702108.0
732.57	54089950.0
732.82	56598150.0
733.07	56626384.0
733.32	56878940.0
733.57	57294424.0
733.82	57536240.0
734.07	57019572.0
734.32	57490636.0
734.57	56829624.0
734.82	57329676.0
735.07	56088892.0
735.32	57045012.0
735.57	55074850.0
735.82	56890656.0
736.07	56398200.0
736.32	54717800.0
736.57	56783536.0
736.82	56877304.0
737.07	56912148.0
737.32	56600720.0
737.57	56429984.0
737.82	57242016.0
738.07	56479924.0
738.32	56237750.0
738.57	53772250.0
738.82	51934708.0
739.07	56186056.0
739.32	55170800.0
739.57	56464020.0
739.82	56491812.0
740.07	53295268.0
740.32	56854756.0
740.57	54617076.0
740.82	53252252.0
741.07	54016716.0
741.32	56281496.0
741.57	52246490.0
741.82	54334990.0
742.07	55689690.0
742.32	51326990.0
742.57	55594604.0
742.82	56056300.0
743.07	55258910.0
743.32	55700544.0
743.57	55570856.0
743.82	56295430.0
744.07	54701336.0
744.32	54725660.0
744.57	52756876.0
744.82	54728228.0
745.07	55503400.0
745.32	54999010.0
745.57	55995650.0
745.82	55839612.0
746.07	55450990.0
746.32	53139450.0
746.57	55668092.0
746.82	55749508.0
747.07	55736350.0
747.32	54451972.0
747.57	55054744.0
747.82	55596572.0
748.07	54288564.0
748.32	54342656.0
748.57	55652304.0
748.82	55371100.0
749.07	53710530.0
749.32	55007560.0
749.57	51897692.0
749.82	54883036.0
750.07	55131492.0
750.32	55091540.0
750.57	54727188.0
750.82	54696108.0
751.07	51319584.0
751.32	54157000.0
751.57	54784664.0
751.82	55204010.0
752.07	55275920.0
752.32	53016270.0
752.57	53078830.0
752.82	55121788.0
753.07	53665620.0
753.32	54958636.0
753.57	55011652.0
753.82	54660524.0
754.07	54773250.0
754.32	54724330.0
754.57	54855640.0
754.82	53766052.0
755.07	54799510.0
755.32	53973628.0
755.57	52529850.0
755.82	54487970.0
756.07	52605270.0
756.32	54503684.0
756.57	54529670.0
756.82	52773204.0
757.07	54534860.0
757.32	53035990.0
757.57	54424172.0
757.82	54000420.0
758.07	54401500.0
758.32	52238012.0
758.57	52277604.0
758.82	53934080.0
759.07	54068284.0
759.32	54046624.0
759.57	53850132.0
759.82	53854504.0
760.07	53448904.0
760.32	52866764.0
760.57	53372056.0
760.82	54193984.0
761.07	53294190.0
761.32	54112940.0
761.57	52737236.0
761.82	49032136.0
762.07	52659636.0
762.32	53814010.0
762.57	53890610.0
762.82	53845652.0
763.07	53676080.0
763.32	53754588.0
763.57	53776956.0
763.82	53719510.0
764.07	53322160.0
764.32	53620060.0
764.57	53695064.0
764.82	53378036.0
765.07	53565280.0
765.32	52732164.0
765.57	51928372.0
765.82	48560484.0
766.07	50311830.0
766.32	50597920.0
766.57	49526524.0
766.82	52712800.0
767.07	52794896.0
767.32	53124380.0
767.57	53281044.0
767.82	53121124.0
768.07	51660756.0
768.32	53162176.0
768.57	52931348.0
768.82	52498650.0
769.07	50609680.0
769.32	52852270.0
769.57	52691884.0
769.82	50049356.0
770.07	52856070.0
770.32	52858236.0
770.57	52813590.0
770.82	52334908.0
771.07	49640604.0
771.32	50928540.0
771.57	52738212.0
771.82	52473308.0
772.07	52390320.0
772.32	49678316.0
772.57	52430096.0
772.82	50781476.0
773.07	52541932.0
773.32	52332210.0
773.57	52458692.0
773.82	52469384.0
774.07	52375870.0
774.32	50920150.0
774.57	49782996.0
774.82	48079510.0
775.07	51437700.0
775.32	52231508.0
775.57	52037160.0
775.82	51773124.0
776.07	51986030.0
776.32	52266240.0
776.57	52037804.0
776.82	52192456.0
777.07	51283652.0
777.32	50195132.0
777.57	51016252.0
777.82	52012132.0
778.07	49409316.0
778.32	51980124.0
778.57	51931028.0
778.82	50289188.0
779.07	51830770.0
779.32	51758500.0
779.57	51847012.0
779.82	49417416.0
780.07	51167200.0
780.32	51635030.0
780.57	51629800.0
780.82	50776520.0
781.07	49823236.0
781.32	51539900.0
781.57	51374140.0
781.82	51582990.0
782.07	51027844.0
782.32	51509564.0
782.57	50234436.0
782.82	51456544.0
783.07	51256936.0
783.32	48067950.0
783.57	48986476.0
783.82	51197090.0
784.07	50808284.0
784.32	51032310.0
784.57	50917764.0
784.82	50932024.0
785.07	49281652.0
785.32	50946212.0
785.57	50490170.0
785.82	51091884.0
786.07	50446970.0
786.32	50816972.0
786.57	50814740.0
786.82	50910860.0
787.07	50691720.0
787.32	50687856.0
787.57	50611524.0
787.82	50085536.0
788.07	49551176.0
788.32	50557024.0
788.57	50624290.0
788.82	50419660.0
789.07	50414748.0
789.32	50327908.0
789.57	49598560.0
789.82	50163390.0
790.07	49410148.0
790.32	50104390.0
790.57	50025788.0
790.82	50084416.0
791.07	49956012.0
791.32	48090230.0
791.57	49878450.0
791.82	47593076.0
792.07	50130730.0
792.32	49583700.0
792.57	49687268.0
792.82	49888060.0
793.07	48068492.0
793.32	47744230.0
793.57	49876480.0
793.82	46660388.0
794.07	48787228.0
794.32	47522668.0
794.57	46585376.0
794.82	49415064.0
795.07	49450750.0
795.32	49607452.0
795.57	49025812.0
795.82	49272710.0
796.07	49549756.0
796.32	49518640.0
796.57	49582544.0
796.82	49548456.0
797.07	49124932.0
797.32	49449104.0
797.57	48966750.0
797.82	49038308.0
798.07	49364376.0
798.32	49574830.0
798.57	49300736.0
798.82	48829610.0
799.07	49441004.0
799.32	49240372.0
799.57	48544310.0
799.82	46406508.0
800.07	49126276.0
800.32	48460284.0
800.57	49132280.0
800.82	48558320.0
801.07	49056020.0
801.32	48971636.0
801.57	49053850.0
801.82	49006456.0
802.07	48777544.0
802.32	49013840.0
802.57	48098460.0
802.82	46722216.0
803.07	48909616.0
803.32	48937172.0
803.57	47308500.0
803.82	48873324.0
804.07	48693220.0
804.32	48358176.0
804.57	46035236.0
804.82	46877884.0
805.07	47916268.0
805.32	47609428.0
805.57	48417276.0
805.82	48323424.0
806.07	48495876.0
806.32	48362852.0
806.57	48582184.0
806.82	48242844.0
807.07	47133136.0
807.32	47365636.0
807.57	47277124.0
807.82	48317470.0
808.07	47698724.0
808.32	47999856.0
808.57	45894350.0
808.82	47827690.0
809.07	47750452.0
809.32	46208710.0
809.57	47218828.0
809.82	45939456.0
810.07	48000148.0
810.32	47868852.0
810.57	47673412.0
810.82	47818356.0
811.07	47778310.0
811.32	47735188.0
811.57	47291544.0
811.82	47877330.0
812.07	47720784.0
812.32	47927700.0
812.57	47481772.0
812.82	47719150.0
813.07	47459520.0
813.32	47729468.0
813.57	47551156.0
813.82	47470000.0
814.07	47329700.0
814.32	47266772.0
814.57	47502500.0
814.82	47034740.0
815.07	46479464.0
815.32	47346492.0
815.57	47146292.0
815.82	47238380.0
816.07	47168650.0
816.32	46281904.0
816.57	47169756.0
816.82	47097640.0
817.07	47091824.0
817.32	47026864.0
817.57	47179396.0
817.82	46564140.0
818.07	46986828.0
818.32	43124628.0
818.57	46296690.0
818.82	46840212.0
819.07	47162944.0
819.32	46224710.0
819.57	41965510.0
819.82	45297052.0
820.07	45928584.0
820.32	46694052.0
820.57	46229400.0
820.82	45502350.0
821.07	45804950.0
821.32	43719770.0
821.57	46094380.0
821.82	46804000.0
822.07	42978880.0
822.32	46619188.0
822.57	46824452.0
822.82	46515492.0
823.07	44697100.0
823.32	45223304.0
823.57	46075988.0
823.82	45113530.0
824.07	46641948.0
824.32	46382964.0
824.57	46610080.0
824.82	44071710.0
825.07	45958668.0
825.32	46462590.0
825.57	45884440.0
825.82	46251700.0
826.07	46278556.0
826.32	45981556.0
826.57	46096510.0
826.82	46141828.0
827.07	45930250.0
827.32	45861452.0
827.57	45684044.0
827.82	45984880.0
828.07	46101616.0
828.32	46092744.0
828.57	46015740.0
828.82	45403156.0
829.07	46042910.0
829.32	44654830.0
829.57	45281836.0
829.82	45567020.0
830.07	45582816.0
830.32	45419420.0
830.57	43586030.0
830.82	45452160.0
831.07	44215996.0
831.32	45521544.0
831.57	45785524.0
831.82	44469430.0
832.07	45381510.0
832.32	45521470.0
832.57	44764908.0
832.82	42215680.0
833.07	44138904.0
833.32	44559044.0
833.57	43611160.0
833.82	44001412.0
834.07	45310532.0
834.32	44747820.0
834.57	42905450.0
834.82	44602490.0
835.07	45377720.0
835.32	44968132.0
835.57	45243190.0
835.82	44808980.0
836.07	44862020.0
836.32	44634120.0
836.57	43796376.0
836.82	45192376.0
837.07	44898856.0
837.32	44728360.0
837.57	45010720.0
837.82	44373572.0
838.07	45175156.0
838.32	43803510.0
838.57	44723644.0
838.82	40781324.0
839.07	44674460.0
839.32	44897810.0
839.57	44582572.0
839.82	44250908.0
840.07	43568732.0
840.32	44458570.0
840.57	44759148.0
840.82	44693610.0
841.07	44690000.0
841.32	43759590.0
841.57	44691144.0
841.82	42915276.0
842.07	44317024.0
842.32	43424748.0
842.57	43346740.0
842.82	44481268.0
843.07	44519700.0
843.32	43873956.0
843.57	41594692.0
843.82	44046920.0
844.07	42737056.0
844.32	43825936.0
844.57	42509308.0
844.82	44335510.0
845.07	43984424.0
845.32	44246264.0
845.57	44119800.0
845.82	43821932.0
846.07	44050292.0
846.32	43888040.0
846.57	43539436.0
846.82	40511084.0
847.07	43129110.0
847.32	43838730.0
847.57	43945740.0
847.82	43578124.0
848.07	43491984.0
848.32	43571856.0
848.57	43656764.0
848.82	43653924.0
849.07	43693268.0
849.32	42923530.0
849.57	40644296.0
849.82	28972388.0
850.07	41066510.0
850.32	42169076.0
850.57	42849080.0
850.82	43417644.0
851.07	43362210.0
851.32	40629810.0
851.57	41467730.0
851.82	42810480.0
852.07	43387972.0
852.32	43389776.0
852.57	42041136.0
852.82	41752700.0
853.07	42609464.0
853.32	42130850.0
853.57	40438744.0
853.82	38019764.0
854.07	28943634.0
854.32	25903684.0
854.57	37227316.0
854.82	40345680.0
855.07	41655176.0
855.32	42396384.0
855.57	41177696.0
855.82	42815492.0
856.07	42819496.0
856.32	42684936.0
856.57	42780970.0
856.82	42718692.0
857.07	42757110.0
857.32	42922890.0
857.57	42628284.0
857.82	43045790.0
858.07	43066580.0
858.32	41041716.0
858.57	42618130.0
858.82	42556080.0
859.07	42565010.0
859.32	41966990.0
859.57	41598830.0
859.82	40785532.0
860.07	42084804.0
860.32	41407720.0
860.57	42011020.0
860.82	42421960.0
861.07	40329310.0
861.32	42295740.0
861.57	41842550.0
861.82	42523630.0
862.07	41199456.0
862.32	42722980.0
862.57	42004696.0
862.82	42612404.0
863.07	42243156.0
863.32	42249560.0
863.57	41972024.0
863.82	41444996.0
864.07	42387130.0
864.32	41244884.0
864.57	42037230.0
864.82	40263600.0
865.07	41885548.0
865.32	41316200.0
865.57	40731732.0
865.82	38118030.0
866.07	29124276.0
866.32	25712684.0
866.57	37159410.0
866.82	39802252.0
867.07	40533444.0
867.32	40637390.0
867.57	38938540.0
867.82	41813096.0
868.07	39408590.0
868.32	41493030.0
868.57	41366720.0
868.82	36979860.0
869.07	41063340.0
869.32	40970012.0
869.57	41646100.0
869.82	39818856.0
870.07	41287364.0
870.32	41426452.0
870.57	41845508.0
870.82	41845252.0
871.07	39586450.0
871.32	39960070.0
871.57	41819970.0
871.82	40340084.0
872.07	41424610.0
872.32	41741596.0
872.57	41753276.0
872.82	40167424.0
873.07	41668412.0
873.32	41609636.0
873.57	37481304.0
873.82	41249284.0
874.07	40992610.0
874.32	39754570.0
874.57	40779788.0
874.82	39882280.0
875.07	38880252.0
875.32	39054220.0
875.57	40739920.0
875.82	38966012.0
876.07	41107908.0
876.32	39560296.0
876.57	40825428.0
876.82	41163930.0
877.07	41138508.0
877.32	38368452.0
877.57	40659000.0
877.82	41194612.0
878.07	41258908.0
878.32	41137776.0
878.57	40978784.0
878.82	40741784.0
879.07	39586364.0
879.32	39173972.0
879.57	40850310.0
879.82	41128556.0
880.07	41103732.0
880.32	40947348.0
880.57	34093970.0
880.82	37876090.0
881.07	40810690.0
881.32	40897296.0
881.57	40877190.0
881.82	40711224.0
882.07	40234216.0
882.32	37358796.0
882.57	40672300.0
882.82	40698090.0
883.07	40881896.0
883.32	40187172.0
883.57	40131910.0
883.82	38507900.0
884.07	39567190.0
884.32	40387220.0
884.57	39529470.0
884.82	40383576.0
885.07	40117316.0
885.32	40194300.0
885.57	39990210.0
885.82	39543080.0
886.07	38671260.0
886.32	36552496.0
886.57	37839524.0
886.82	38428150.0
887.07	39934690.0
887.32	39895828.0
887.57	39522260.0
887.82	39357576.0
888.07	40101624.0
888.32	39622636.0
888.57	40317908.0
888.82	40302270.0
889.07	40089908.0
889.32	39161704.0
889.57	40173120.0
889.82	39805588.0
890.07	40314076.0
890.32	40122372.0
890.57	40137452.0
890.82	39872284.0
891.07	40074930.0
891.32	38881824.0
891.57	40098220.0
891.82	39978976.0
892.07	38788336.0
892.32	38900344.0
892.57	39542428.0
892.82	37347668.0
893.07	39576276.0
893.32	39833064.0
893.57	40002100.0
893.82	39926156.0
894.07	39848296.0
894.32	39425108.0
894.57	38348610.0
894.82	38555284.0
895.07	39750588.0
895.32	39813616.0
895.57	39420720.0
895.82	39754010.0
896.07	39469280.0
896.32	39284556.0
896.57	39101010.0
896.82	38532264.0
897.07	39632636.0
897.32	39166784.0
897.57	38248456.0
897.82	39050596.0
898.07	39149708.0
898.32	39283280.0
898.57	38929960.0
898.82	38836976.0
899.07	39045840.0
899.32	39167124.0
899.57	38861164.0
899.82	38257276.0
900.07	36515460.0
900.32	38861350.0
900.57	38477330.0
900.82	37121020.0
901.07	36694572.0
901.32	35020484.0
901.57	35583144.0
901.82	36874172.0
902.07	36836508.0
902.32	37698504.0
902.57	38664430.0
902.82	38607820.0
903.07	38711456.0
903.32	38906348.0
903.57	38603410.0
903.82	38808544.0
904.07	38955750.0
904.32	38868150.0
904.57	38900230.0
904.82	38855908.0
905.07	38386644.0
905.32	38494824.0
905.57	38834730.0
905.82	38410856.0
906.07	36543990.0
906.32	36307308.0
906.57	38720396.0
906.82	38478356.0
907.07	38343200.0
907.32	38586428.0
907.57	38539804.0
907.82	36766510.0
908.07	37148276.0
908.32	38445860.0
908.57	38514820.0
908.82	33999396.0
909.07	38007036.0
909.32	37377268.0
909.57	35607280.0
909.82	37470430.0
910.07	37936580.0
910.32	37463804.0
910.57	37659784.0
910.82	38130108.0
911.07	36586576.0
911.32	37193550.0
911.57	38187020.0
911.82	37170750.0
912.07	38248344.0
912.32	37614268.0
912.57	38160348.0
912.82	38275604.0
913.07	38071252.0
913.32	38075292.0
913.57	37924990.0
913.82	38169636.0
914.07	37617756.0
914.32	37871480.0
914.57	37592844.0
914.82	36857444.0
915.07	37789660.0
915.32	37813984.0
915.57	37715684.0
915.82	37812788.0
916.07	37765828.0
916.32	37460510.0
916.57	37376824.0
916.82	37314080.0
917.07	37396544.0
917.32	36557556.0
917.57	37397092.0
917.82	37342772.0
918.07	37259604.0
918.32	37438696.0
918.57	37247436.0
918.82	37240612.0
919.07	37332350.0
919.32	37196756.0
919.57	37350492.0
919.82	36849300.0
920.07	37088624.0
920.32	37160772.0
920.57	36630456.0
920.82	36696148.0
921.07	35783716.0
921.32	34482730.0
921.57	36611868.0
921.82	34435004.0
922.07	36535760.0
922.32	36079770.0
922.57	35086640.0
922.82	31784344.0
923.07	33846620.0
923.32	35653536.0
923.57	36033570.0
923.82	34619096.0
924.07	36564056.0
924.32	35481604.0
924.57	35786504.0
924.82	36312508.0
925.07	36931950.0
925.32	35972516.0
925.57	33357928.0
925.82	34744224.0
926.07	36541724.0
926.32	35673896.0
926.57	36451764.0
926.82	36662180.0
927.07	36329480.0
927.32	36756564.0
927.57	36909844.0
927.82	36527150.0
928.07	35960160.0
928.32	36873700.0
928.57	36702164.0
928.82	35884228.0
929.07	35562364.0
929.32	36347964.0
929.57	35902428.0
929.82	36402480.0
930.07	36311044.0
930.32	36523824.0
930.57	36138628.0
930.82	36390092.0
931.07	36128308.0
931.32	36578230.0
931.57	36362740.0
931.82	35420876.0
932.07	36449684.0
932.32	36001124.0
932.57	36043064.0
932.82	35757136.0
933.07	36561550.0
933.32	35970210.0
933.57	36044776.0
933.82	36281936.0
934.07	36358564.0
934.32	36207760.0
934.57	35790924.0
934.82	36245550.0
935.07	35322760.0
935.32	36261596.0
935.57	35600336.0
935.82	35374496.0
936.07	35951230.0
936.32	35354720.0
936.57	35622176.0
936.82	35659320.0
937.07	35832680.0
937.32	35819196.0
937.57	35838692.0
937.82	35988830.0
938.07	35503870.0
938.32	35675572.0
938.57	35746076.0
938.82	35590200.0
939.07	35619716.0
939.32	35273776.0
939.57	34840390.0
939.82	35481140.0
940.07	35102812.0
940.32	35486104.0
940.57	32671492.0
940.82	35462760.0
941.07	34848256.0
941.32	32178788.0
941.57	32266266.0
941.82	35303610.0
942.07	34182540.0
942.32	35418452.0
942.57	35281256.0
942.82	35503132.0
943.07	34401310.0
943.32	33946690.0
943.57	35343428.0
943.82	32733344.0
944.07	35344524.0
944.32	34732604.0
944.57	34722292.0
944.82	34510576.0
945.07	35394376.0
945.32	34712756.0
945.57	34942324.0
945.82	34829560.0
946.07	35471100.0
946.32	34599804.0
946.57	35159300.0
946.82	35263264.0
947.07	35013844.0
947.32	35178964.0
947.57	35326932.0
947.82	34876372.0
948.07	34585708.0
948.32	35212508.0
948.57	34558964.0
948.82	34784776.0
949.07	35215892.0
949.32	34872964.0
949.57	34731308.0
949.82	35097610.0
950.07	34738550.0
950.32	34610324.0
950.57	34295340.0
950.82	34816508.0
951.07	34556384.0
951.32	34460556.0
951.57	34966676.0
951.82	34720504.0
952.07	34203684.0
952.32	34691430.0
952.57	34305644.0
952.82	34376788.0
953.07	34072624.0
953.32	34530330.0
953.57	33369446.0
953.82	34024828.0
954.07	33326604.0
954.32	32274672.0
954.57	29208032.0
954.82	31991732.0
955.07	33139636.0
955.32	33403916.0
955.57	33583452.0
955.82	33644870.0
956.07	34057920.0
956.32	34108090.0
956.57	34164144.0
956.82	34397376.0
957.07	33176920.0
957.32	33691052.0
957.57	33847460.0
957.82	34262690.0
958.07	34363670.0
958.32	34241044.0
958.57	33943412.0
958.82	33833564.0
959.07	34528564.0
959.32	34120948.0
959.57	33782300.0
959.82	34106540.0
960.07	33867760.0
960.32	32617262.0
960.57	33213666.0
960.82	33432780.0
961.07	34279090.0
961.32	34284412.0
961.57	34095388.0
961.82	34064616.0
962.07	32391016.0
962.32	33950400.0
962.57	32337258.0
962.82	34099340.0
963.07	34114530.0
963.32	33129126.0
963.57	33897424.0
963.82	32119230.0
964.07	34012204.0
964.32	33877304.0
964.57	33771616.0
964.82	33369928.0
965.07	33552938.0
965.32	32954978.0
965.57	33645860.0
965.82	31053702.0
966.07	33039126.0
966.32	33563732.0
966.57	33801376.0
966.82	33818068.0
967.07	33350190.0
967.32	33402504.0
967.57	32381260.0
967.82	33730692.0
968.07	33349496.0
968.32	33626948.0
968.57	33668136.0
968.82	32739888.0
969.07	33011918.0
969.32	33411964.0
969.57	33560484.0
969.82	33561456.0
970.07	33308058.0
970.32	33451498.0
970.57	32646536.0
970.82	33589660.0
971.07	33540916.0
971.32	33492564.0
971.57	33309058.0
971.82	33283648.0
972.07	33444318.0
972.32	33268174.0
972.57	33272062.0
972.82	32661316.0
973.07	33092052.0
973.32	33425026.0
973.57	32701924.0
973.82	31590546.0
974.07	33335204.0
974.32	32470098.0
974.57	32646414.0
974.82	32666786.0
975.07	33180868.0
975.32	32449980.0
975.57	33223584.0
975.82	32861290.0
976.07	33140568.0
976.32	31964536.0
976.57	33121196.0
976.82	32746162.0
977.07	32484250.0
977.32	33051334.0
977.57	33083492.0
977.82	32999722.0
978.07	32876130.0
978.32	32137068.0
978.57	32423386.0
978.82	32112246.0
979.07	32891578.0
979.32	32600192.0
979.57	32819980.0
979.82	32822342.0
980.07	31910436.0
980.32	32932798.0
980.57	32888814.0
980.82	32649240.0
981.07	32695108.0
981.32	32553722.0
981.57	32683232.0
981.82	32772472.0
982.07	32181958.0
982.32	32696262.0
982.57	32487730.0
982.82	32549480.0
983.07	32576436.0
983.32	32012096.0
983.57	32391588.0
983.82	32373446.0
984.07	32505068.0
984.32	32222630.0
984.57	32378994.0
984.82	32121304.0
985.07	32327156.0
985.32	32446008.0
985.57	32094180.0
985.82	32435026.0
986.07	31553696.0
986.32	32468658.0
986.57	32474794.0
986.82	32241434.0
987.07	32194650.0
987.32	32034438.0
987.57	32450502.0
987.82	32417578.0
988.07	31991294.0
988.32	32057260.0
988.57	32257234.0
988.82	31120078.0
989.07	31103378.0
989.32	31886674.0
989.57	32256432.0
989.82	31342854.0
990.07	31769806.0
990.32	32027684.0
990.57	31524620.0
990.82	32033676.0
991.07	31983124.0
991.32	31519316.0
991.57	31940278.0
991.82	32201424.0
992.07	31836022.0
992.32	31901650.0
992.57	32013694.0
992.82	31677750.0
993.07	31495338.0
993.32	31814874.0
993.57	31993414.0
993.82	31798358.0
994.07	30808602.0
994.32	31476840.0
994.57	31901858.0
994.82	31680520.0
995.07	31494574.0
995.32	31717504.0
995.57	31501538.0
995.82	31762178.0
996.07	31596306.0
996.32	31657180.0
996.57	31702812.0
996.82	31489548.0
997.07	31114712.0
997.32	31338300.0
997.57	31569684.0
997.82	31585956.0
998.07	31524144.0
998.32	31578870.0
998.57	31090358.0
998.82	31653922.0
999.07	31499466.0
999.32	31013432.0
999.57	31592096.0
999.82	31184826.0
1000.07	31315016.0
1000.32	31452142.0
1000.57	31120678.0
1000.82	30800286.0
1001.07	30951612.0
1001.32	31492938.0
1001.57	31412674.0
1001.82	31378072.0
1002.07	31223648.0
1002.32	31339538.0
1002.57	30844030.0
1002.82	31101948.0
1003.07	30898846.0
1003.32	30984562.0
1003.57	30151540.0
1003.82	30697824.0
1004.07	30549522.0
1004.32	30244594.0
1004.57	29468720.0
1004.82	26601432.0
1005.07	27107974.0
1005.32	29539936.0
1005.57	30045764.0
1005.82	30135996.0
1006.07	30293028.0
1006.32	30364662.0
1006.57	29575384.0
1006.82	30492996.0
1007.07	30972640.0
1007.32	30883540.0
1007.57	30519848.0
1007.82	30852428.0
1008.07	30883306.0
1008.32	30726842.0
1008.57	30608212.0
1008.82	30841330.0
1009.07	30745458.0
1009.32	30639548.0
1009.57	30893360.0
1009.82	30354066.0
1010.07	30407002.0
1010.32	30129546.0
1010.57	30049790.0
1010.82	30831494.0
1011.07	30795064.0
1011.32	30587924.0
1011.57	30700966.0
1011.82	30716306.0
1012.07	30512954.0
1012.32	29632752.0
1012.57	30550888.0
1012.82	30701088.0
1013.07	30660012.0
1013.32	30635158.0
1013.57	30507834.0
1013.82	30498306.0
1014.07	30626130.0
1014.32	30448042.0
1014.57	28725478.0
1014.82	30199056.0
1015.07	30425570.0
1015.32	30273086.0
1015.57	29939708.0
1015.82	30483306.0
1016.07	29849124.0
1016.32	29101964.0
1016.57	30481040.0
1016.82	30176748.0
1017.07	30291062.0
1017.32	30204106.0
1017.57	30435082.0
1017.82	30201330.0
1018.07	30262058.0
1018.32	28766744.0
1018.57	29624308.0
1018.82	30056812.0
1019.07	30272790.0
1019.32	29028848.0
1019.57	30082208.0
1019.82	29742294.0
1020.07	30205866.0
1020.32	29885332.0
1020.57	30148600.0
1020.82	29790034.0
1021.07	30092100.0
1021.32	29228472.0
1021.57	28644428.0
1021.82	29336652.0
1022.07	30043988.0
1022.32	29818896.0
1022.57	29782724.0
1022.82	29831912.0
1023.07	30024912.0
1023.32	29897784.0
1023.57	29740604.0
1023.82	29517958.0
1024.0701	29918766.0
1024.3201	29900834.0
1024.5701	29531380.0
1024.8201	29943810.0
1025.0701	29989562.0
1025.3201	29878754.0
1025.5701	29943146.0
1025.8201	29838684.0
1026.0701	29731548.0
1026.3201	29836298.0
1026.5701	29703130.0
1026.8201	29858636.0
1027.0701	29300352.0
1027.3201	29721322.0
1027.5701	29830198.0
1027.8201	29763704.0
1028.0701	29792632.0
1028.3201	29233938.0
1028.5701	29787534.0
1028.8201	28007964.0
1029.0701	29691994.0
1029.3201	29685158.0
1029.5701	29599190.0
1029.8201	29350860.0
1030.0701	29464720.0
1030.3201	29268342.0
1030.5701	29615790.0
1030.8201	29446682.0
1031.0701	29620202.0
1031.3201	28944720.0
1031.5701	29549170.0
1031.8201	29517110.0
1032.0701	29357032.0
1032.3201	29456740.0
1032.5701	29411386.0
1032.8201	27894548.0
1033.0701	28374924.0
1033.3201	29131028.0
1033.5701	28944036.0
1033.8201	29435304.0
1034.0701	28491638.0
1034.3201	27822066.0
1034.5701	29143396.0
1034.8201	28894016.0
1035.0701	29349170.0
1035.3201	28946628.0
1035.5701	29073486.0
1035.8201	29130270.0
1036.0701	29213628.0
1036.3201	29033574.0
1036.5701	29190988.0
1036.8201	29244450.0
1037.0701	26931080.0
1037.3201	28548722.0
1037.5701	28894842.0
1037.8201	28411828.0
1038.0701	29181228.0
1038.3201	29117710.0
1038.5701	29164174.0
1038.8201	28967178.0
1039.0701	28992148.0
1039.3201	29029658.0
1039.5701	27709062.0
1039.8201	28852482.0
1040.0701	29049302.0
1040.3201	28870550.0
1040.5701	28652166.0
1040.8201	28490094.0
1041.0701	28929704.0
1041.3201	28920944.0
1041.5701	28706390.0
1041.8201	28911906.0
1042.0701	28928816.0
1042.3201	28024376.0
1042.5701	27983068.0
1042.8201	28797754.0
1043.0701	28829166.0
1043.3201	28702626.0
1043.5701	28488186.0
1043.8201	28774382.0
1044.0701	28728954.0
1044.3201	28744492.0
1044.5701	28765806.0
1044.8201	28156094.0
1045.0701	28644350.0
1045.3201	28629892.0
1045.5701	26355114.0
1045.8201	27740266.0
1046.0701	27863558.0
1046.3201	28640966.0
1046.5701	28564604.0
1046.8201	27985738.0
1047.0701	27255372.0
1047.3201	28538348.0
1047.5701	28443982.0
1047.8201	28156316.0
1048.0701	27959150.0
1048.3201	28416334.0
1048.5701	28158760.0
1048.8201	28476616.0
1049.0701	28439038.0
1049.3201	28506018.0
1049.5701	28182024.0
1049.8201	28461226.0
1050.0701	27964558.0
1050.3201	28156866.0
1050.5701	28097284.0
1050.8201	28258750.0
1051.0701	27992062.0
1051.3201	28158304.0
1051.5701	28350314.0
1051.8201	27650598.0
1052.0701	28140016.0
1052.3201	28234308.0
1052.5701	28214834.0
1052.8201	28255782.0
1053.0701	27682848.0
1053.3201	27309798.0
1053.5701	28203926.0
1053.8201	28112520.0
1054.0701	27904228.0
1054.3201	28224418.0
1054.5701	28120636.0
1054.8201	28170224.0
1055.0701	27990800.0
1055.3201	27855098.0
1055.5701	28052466.0
1055.8201	27911102.0
1056.0701	28059330.0
1056.3201	28093398.0
1056.5701	27890522.0
1056.8201	27754806.0
1057.0701	27679122.0
1057.3201	27324704.0
1057.5701	27720380.0
1057.8201	27628932.0
1058.0701	27511960.0
1058.3201	27296856.0
1058.5701	24264018.0
1058.8201	26456364.0
1059.0701	27803228.0
1059.3201	27691478.0
1059.5701	27482000.0
1059.8201	27845886.0
1060.0701	27837376.0
1060.3201	25368256.0
1060.5701	27136862.0
1060.8201	27754248.0
1061.0701	27689074.0
1061.3201	27739576.0
1061.5701	27606472.0
1061.8201	27654854.0
1062.0701	27372324.0
1062.3201	27678994.0
1062.5701	27205756.0
1062.8201	25897262.0
1063.0701	27301750.0
1063.3201	27340918.0
1063.5701	27612044.0
1063.8201	27615736.0
1064.0701	27618382.0
1064.3201	27554804.0
1064.5701	27597164.0
1064.8201	27465436.0
1065.0701	27523304.0
1065.3201	27516630.0
1065.5701	27537690.0
1065.8201	27459706.0
1066.0701	24897336.0
1066.3201	27436120.0
1066.5701	27233292.0
1066.8201	27227410.0
1067.0701	27379352.0
1067.3201	27070700.0
1067.5701	27289666.0
1067.8201	27305994.0
1068.0701	27187856.0
1068.3201	24860266.0
1068.5701	25428120.0
1068.8201	26924264.0
1069.0701	23060794.0
1069.3201	25393826.0
1069.5701	27076402.0
1069.8201	26966772.0
1070.0701	26218812.0
1070.3201	26619632.0
1070.5701	26156976.0
1070.8201	25426326.0
1071.0701	27095066.0
1071.3201	27197288.0
1071.5701	26817658.0
1071.8201	25928554.0
1072.0701	27075558.0
1072.3201	27144462.0
1072.5701	26588750.0
1072.8201	24806182.0
1073.0701	25307452.0
1073.3201	26910078.0
1073.5701	27081724.0
1073.8201	27076984.0
1074.0701	26638722.0
1074.3201	26933856.0
1074.5701	26296846.0
1074.8201	25240202.0
1075.0701	26245010.0
1075.3201	25865676.0
1075.5701	26881298.0
1075.8201	26948620.0
1076.0701	26919460.0
1076.3201	26874848.0
1076.5701	26513072.0
1076.8201	26442408.0
1077.0701	26760360.0
1077.3201	26827368.0
1077.5701	26790266.0
1077.8201	26874422.0
1078.0701	26632504.0
1078.3201	25835632.0
1078.5701	24336632.0
1078.8201	26103570.0
1079.0701	26759772.0
1079.3201	26368842.0
1079.5701	25920300.0
1079.8201	26450502.0
1080.0701	26477678.0
1080.3201	26342606.0
1080.5701	26605606.0
1080.8201	26111450.0
1081.0701	22688614.0
1081.3201	26160326.0
1081.5701	26568524.0
1081.8201	26080224.0
1082.0701	26437752.0
1082.3201	26540986.0
1082.5701	25401312.0
1082.8201	23619062.0
1083.0701	26141118.0
1083.3201	26132598.0
1083.5701	25933718.0
1083.8201	26126756.0
1084.0701	26390164.0
1084.3201	24832538.0
1084.5701	25961460.0
1084.8201	26349922.0
1085.0701	26322800.0
1085.3201	26443700.0
1085.5701	26310740.0
1085.8201	26339678.0
1086.0701	26284888.0
1086.3201	25469628.0
1086.5701	26304530.0
1086.8201	23694292.0
1087.0701	23621474.0
1087.3201	25926580.0
1087.5701	26215832.0
1087.8201	26245536.0
1088.0701	25970788.0
1088.3201	24918288.0
1088.5701	24708394.0
1088.8201	26106620.0
1089.0701	25727874.0
1089.3201	26000908.0
1089.5701	25240664.0
1089.8201	26128352.0
1090.0701	26085352.0
1090.3201	26085144.0
1090.5701	25737952.0
1090.8201	26020442.0
1091.0701	25939498.0
1091.3201	25403554.0
1091.5701	24298692.0
1091.8201	25662128.0
1092.0701	25648784.0
1092.3201	25666426.0
1092.5701	25172392.0
1092.8201	25016892.0
1093.0701	24862620.0
1093.3201	24408216.0
1093.5701	23412690.0
1093.8201	20504088.0
1094.0701	23516710.0
1094.3201	24481722.0
1094.5701	24918388.0
1094.8201	24927094.0
1095.0701	25068108.0
1095.3201	24170432.0
1095.5701	25412272.0
1095.8201	23997550.0
1096.0701	25554530.0
1096.3201	25038400.0
1096.5701	23055276.0
1096.8201	25182202.0
1097.0701	25473458.0
1097.3201	25301828.0
1097.5701	25591016.0
1097.8201	23704150.0
1098.0701	24458892.0
1098.3201	24393910.0
1098.5701	24851706.0
1098.8201	25242752.0
1099.0701	25263840.0
1099.3201	25530578.0
1099.5701	25238950.0
1099.8201	25270240.0
1100.0701	25410826.0
1100.3201	25345552.0
1100.5701	25182202.0
1100.8201	25469844.0
1101.0701	25205180.0
1101.3201	24435734.0
1101.5701	25067700.0
1101.8201	23022436.0
1102.0701	24999938.0
1102.3201	25114386.0
1102.5701	25290362.0
1102.8201	24752868.0
1103.0701	25239302.0
1103.3201	25227538.0
1103.5701	25258478.0
1103.8201	24796366.0
1104.0701	25062664.0
1104.3201	25313360.0
1104.5701	24757232.0
1104.8201	24825922.0
1105.0701	25241278.0
1105.3201	25046238.0
1105.5701	24824040.0
1105.8201	24839978.0
1106.0701	25157568.0
1106.3201	25080266.0
1106.5701	25147606.0
1106.8201	24854850.0
1107.0701	25176484.0
1107.3201	25015342.0
1107.5701	25190772.0
1107.8201	24834768.0
1108.0701	24747938.0
1108.3201	25055304.0
1108.5701	25079884.0
1108.8201	24995574.0
1109.0701	24535786.0
1109.3201	25067666.0
1109.5701	25025630.0
1109.8201	24659454.0
1110.0701	24952506.0
1110.3201	24796292.0
1110.5701	24941962.0
1110.8201	24865918.0
1111.0701	24847778.0
1111.3201	24747508.0
1111.5701	25066354.0
1111.8201	24859216.0
1112.0701	23684798.0
1112.3201	24780294.0
1112.5701	24655604.0
1112.8201	24879824.0
1113.0701	23642742.0
1113.3201	24389242.0
1113.5701	24798690.0
1113.8201	24962210.0
1114.0701	24694840.0
1114.3201	24836882.0
1114.5701	24138374.0
1114.8201	24458408.0
1115.0701	24915948.0
1115.3201	24615580.0
1115.5701	24872822.0
1115.8201	23850960.0
1116.0701	24687440.0
1116.3201	24693948.0
1116.5701	24841670.0
1116.8201	24557542.0
1117.0701	24371028.0
1117.3201	24532492.0
1117.5701	24652906.0
1117.8201	24516772.0
1118.0701	24515964.0
1118.3201	24510120.0
1118.5701	24001322.0
1118.8201	22963880.0
1119.0701	24068234.0
1119.3201	24675968.0
1119.5701	23234102.0
1119.8201	24157312.0
1120.0701	24072340.0
1120.3201	24364918.0
1120.5701	24295230.0
1120.8201	24410112.0
1121.0701	24433776.0
1121.3201	24165816.0
1121.5701	24528492.0
1121.8201	24439326.0
1122.0701	24387348.0
1122.3201	24432210.0
1122.5701	24462580.0
1122.8201	23871326.0
1123.0701	24412888.0
1123.3201	24381804.0
1123.5701	24463990.0
1123.8201	24320798.0
1124.0701	24342018.0
1124.3201	23857348.0
1124.5701	24205644.0
1124.8201	24400886.0
1125.0701	23089946.0
1125.3201	22429602.0
1125.5701	22274602.0
1125.8201	24241954.0
1126.0701	23696836.0
1126.3201	24240658.0
1126.5701	24356912.0
1126.8201	24155462.0
1127.0701	24336568.0
1127.3201	24181316.0
1127.5701	23878608.0
1127.8201	23855808.0
1128.0701	24270026.0
1128.3201	24062152.0
1128.5701	23842714.0
1128.8201	23888582.0
1129.0701	22178216.0
1129.3201	23916728.0
1129.5701	23333402.0
1129.8201	23093628.0
1130.0701	24162870.0
1130.3201	23801958.0
1130.5701	24088450.0
1130.8201	23459844.0
1131.0701	22880164.0
1131.3201	23983164.0
1131.5701	23707120.0
1131.8201	23943192.0
1132.0701	23653424.0
1132.3201	23905952.0
1132.5701	24060842.0
1132.8201	23763698.0
1133.0701	22417592.0
1133.3201	23432720.0
1133.5701	23728494.0
1133.8201	23461362.0
1134.0701	23883258.0
1134.3201	23957522.0
1134.5701	23772326.0
1134.8201	23659576.0
1135.0701	23792204.0
1135.3201	23422004.0
1135.5701	23341752.0
1135.8201	23802914.0
1136.0701	23660104.0
1136.3201	23888420.0
1136.5701	23866568.0
1136.8201	23645438.0
1137.0701	23743646.0
1137.3201	22360142.0
1137.5701	23651712.0
1137.8201	23570512.0
1138.0701	22168858.0
1138.3201	23761472.0
1138.5701	23364608.0
1138.8201	23560046.0
1139.0701	22454414.0
1139.3201	23226838.0
1139.5701	23555440.0
1139.8201	23154002.0
1140.0701	23142074.0
1140.3201	21238494.0
1140.5701	23110036.0
1140.8201	23190626.0
1141.0701	23335394.0
1141.3201	23341728.0
1141.5701	23454702.0
1141.8201	23452154.0
1142.0701	23358488.0
1142.3201	22189884.0
1142.5701	23449360.0
1142.8201	23304594.0
1143.0701	23457650.0
1143.3201	23200924.0
1143.5701	23205088.0
1143.8201	22085068.0
1144.0701	23242186.0
1144.3201	23324092.0
1144.5701	22769270.0
1144.8201	23057340.0
1145.0701	23416714.0
1145.3201	23432074.0
1145.5701	23195626.0
1145.8201	23118430.0
1146.0701	23448212.0
1146.3201	23263468.0
1146.5701	23334776.0
1146.8201	23339486.0
1147.0701	23125006.0
1147.3201	22990734.0
1147.5701	23165198.0
1147.8201	23227856.0
1148.0701	23059210.0
1148.3201	23224208.0
1148.5701	22654002.0
1148.8201	23266444.0
1149.0701	23165990.0
1149.3201	23022844.0
1149.5701	23181532.0
1149.8201	23233118.0
1150.0701	23152674.0
1150.3201	22587902.0
1150.5701	23208548.0
1150.8201	23160224.0
1151.0701	22973864.0
1151.3201	23185960.0
1151.5701	22953160.0
1151.8201	22700800.0
1152.0701	23121430.0
1152.3201	22574760.0
1152.5701	22950268.0
1152.8201	22877850.0
1153.0701	23018624.0
1153.3201	23102448.0
1153.5701	23004684.0
1153.8201	23079188.0
1154.0701	22633962.0
1154.3201	23067404.0
1154.5701	23070810.0
1154.8201	23055276.0
1155.0701	22940588.0
1155.3201	22799140.0
1155.5701	22994840.0
1155.8201	22967802.0
1156.0701	22868606.0
1156.3201	22995034.0
1156.5701	22751268.0
1156.8201	22918802.0
1157.0701	22920838.0
1157.3201	22783498.0
1157.5701	22783314.0
1157.8201	22633120.0
1158.0701	22822408.0
1158.3201	22832982.0
1158.5701	22636704.0
1158.8201	22576492.0
1159.0701	22214660.0
1159.3201	20842798.0
1159.5701	22557454.0
1159.8201	22786378.0
1160.0701	22249282.0
1160.3201	22621504.0
1160.5701	22697362.0
1160.8201	20999348.0
1161.0701	20656406.0
1161.3201	22568818.0
1161.5701	22334222.0
1161.8201	22217756.0
1162.0701	22577936.0
1162.3201	22713070.0
1162.5701	22573556.0
1162.8201	21820942.0
1163.0701	22615350.0
1163.3201	22612428.0
1163.5701	22657352.0
1163.8201	21014844.0
1164.0701	21972244.0
1164.3201	22550184.0
1164.5701	22599300.0
1164.8201	22251394.0
1165.0701	22538414.0
1165.3201	21967538.0
1165.5701	22331270.0
1165.8201	21602574.0
1166.0701	21723132.0
1166.3201	22427278.0
1166.5701	22402138.0
1166.8201	22118998.0
1167.0701	21557636.0
1167.3201	22218962.0
1167.5701	22425468.0
1167.8201	22454284.0
1168.0701	22310548.0
1168.3201	22233854.0
1168.5701	22416364.0
1168.8201	22323652.0
1169.0701	20057056.0
1169.3201	22092244.0
1169.5701	22176126.0
1169.8201	22244960.0
1170.0701	21856410.0
1170.3201	22326988.0
1170.5701	22345212.0
1170.8201	22232858.0
1171.0701	22179334.0
1171.3201	22300552.0
1171.5701	22131964.0
1171.8201	22316816.0
1172.0701	22232546.0
1172.3201	22049568.0
1172.5701	22188544.0
1172.8201	22195276.0
1173.0701	22071200.0
1173.3201	22200800.0
1173.5701	22028592.0
1173.8201	22016400.0
1174.0701	21973192.0
1174.3201	22083652.0
1174.5701	22082240.0
1174.8201	20835718.0
1175.0701	21800090.0
1175.3201	20292886.0
1175.5701	20456382.0
1175.8201	22077464.0
1176.0701	22079590.0
1176.3201	21832692.0
1176.5701	21979408.0
1176.8201	21887092.0
1177.0701	21779514.0
1177.3201	21037190.0
1177.5701	21985978.0
1177.8201	21429438.0
1178.0701	21766032.0
1178.3201	20178836.0
1178.5701	21958484.0
1178.8201	21894408.0
1179.0701	21813244.0
1179.3201	21937574.0
1179.5701	21889172.0
1179.8201	21786944.0
1180.0701	21335574.0
1180.3201	21895056.0
1180.5701	21895046.0
1180.8201	21883758.0
1181.0701	20767754.0
1181.3201	21743468.0
1181.5701	21839838.0
1181.8201	21764812.0
1182.0701	21407496.0
1182.3201	21723536.0
1182.5701	21304076.0
1182.8201	16860754.0
1183.0701	21309582.0
1183.3201	21693078.0
1183.5701	21772294.0
1183.8201	20568856.0
1184.0701	21554828.0
1184.3201	21643414.0
1184.5701	21736906.0
1184.8201	21023758.0
1185.0701	21531726.0
1185.3201	21640906.0
1185.5701	21633400.0
1185.8201	21692566.0
1186.0701	21545290.0
1186.3201	21175212.0
1186.5701	21645136.0
1186.8201	21669806.0
1187.0701	21472674.0
1187.3201	21300584.0
1187.5701	21549196.0
1187.8201	21480790.0
1188.0701	21162518.0
1188.3201	17899098.0
1188.5701	21257218.0
1188.8201	21471790.0
1189.0701	20827776.0
1189.3201	20732592.0
1189.5701	20450934.0
1189.8201	21541078.0
1190.0701	21495838.0
1190.3201	21404932.0
1190.5701	21459136.0
1190.8201	21396920.0
1191.0701	21467726.0
1191.3201	21446656.0
1191.5701	21481084.0
1191.8201	21476568.0
1192.0701	21378134.0
1192.3201	21450042.0
1192.5701	21303732.0
1192.8201	21419210.0
1193.0701	21398320.0
1193.3201	21371160.0
1193.5701	21283424.0
1193.8201	21395204.0
1194.0701	21292586.0
1194.3201	21245124.0
1194.5701	21334844.0
1194.8201	21300102.0
1195.0701	20312718.0
1195.3201	21231860.0
1195.5701	20710674.0
1195.8201	21190426.0
1196.0701	21267984.0
1196.3201	21217678.0
1196.5701	21263720.0
1196.8201	21172484.0
1197.0701	21048462.0
1197.3201	18589398.0
1197.5701	21119910.0
1197.8201	21195650.0
1198.0701	21119960.0
1198.3201	18589142.0
1198.5701	20432038.0
1198.8201	20987084.0
1199.0701	18789196.0
1199.3201	20820694.0
1199.5701	21073464.0
1199.8201	21113570.0
1200.0701	21016248.0
1200.3201	20969210.0
1200.5701	20428312.0
1200.8201	21041922.0
1201.0701	21005110.0
1201.3201	21044848.0
1201.5701	21008028.0
1201.8201	21054348.0
1202.0701	20952244.0
1202.3201	20905546.0
1202.5701	20901658.0
1202.8201	20877038.0
1203.0701	17642440.0
1203.3201	20300752.0
1203.5701	20856322.0
1203.8201	20737742.0
1204.0701	20146054.0
1204.3201	20800222.0
1204.5701	20862086.0
1204.8201	20911110.0
1205.0701	20911902.0
1205.3201	20577162.0
1205.5701	20824586.0
1205.8201	20875668.0
1206.0701	20828568.0
1206.3201	20613120.0
1206.5701	20676324.0
1206.8201	20584352.0
1207.0701	20692006.0
1207.3201	20709824.0
1207.5701	20704148.0
1207.8201	20645076.0
1208.0701	19997074.0
1208.3201	15163812.0
1208.5701	19952870.0
1208.8201	20547928.0
1209.0701	20701324.0
1209.3201	20617812.0
1209.5701	20532148.0
1209.8201	20525348.0
1210.0701	20460536.0
1210.3201	18528484.0
1210.5701	20657372.0
1210.8201	20605612.0
1211.0701	20054500.0
1211.3201	20562566.0
1211.5701	20481050.0
1211.8201	20342460.0
1212.0701	20423762.0
1212.3201	20653770.0
1212.5701	20504090.0
1212.8201	20549298.0
1213.0701	20480814.0
1213.3201	20558786.0
1213.5701	20544918.0
1213.8201	20585936.0
1214.0701	20543494.0
1214.3201	20540692.0
1214.5701	20360110.0
1214.8201	20492614.0
1215.0701	20434606.0
1215.3201	20361242.0
1215.5701	20507970.0
1215.8201	20483458.0
1216.0701	20501616.0
1216.3201	20488442.0
1216.5701	20435512.0
1216.8201	20288034.0
1217.0701	20445800.0
1217.3201	20335166.0
1217.5701	20413696.0
1217.8201	20316416.0
1218.0701	20408108.0
1218.3201	20186930.0
1218.5701	20380952.0
1218.8201	20302368.0
1219.0701	20020264.0
1219.3201	20288098.0
1219.5701	20110148.0
1219.8201	19878266.0
1220.0701	19866012.0
1220.3201	20338658.0
1220.5701	20143962.0
1220.8201	20210698.0
1221.0701	20208534.0
1221.3201	19457064.0
1221.5701	19959160.0
1221.8201	20287316.0
1222.0701	20195096.0
1222.3201	20268674.0
1222.5701	20201432.0
1222.8201	19757418.0
1223.0701	20152828.0
1223.3201	20046578.0
1223.5701	20235514.0
1223.8201	20076360.0
1224.0701	20123122.0
1224.3201	19948760.0
1224.5701	19953136.0
1224.8201	19901508.0
1225.0701	19741294.0
1225.3201	20154542.0
1225.5701	19928834.0
1225.8201	20139674.0
1226.0701	20082710.0
1226.3201	19973980.0
1226.5701	19983468.0
1226.8201	19986812.0
1227.0701	18120930.0
1227.3201	20039370.0
1227.5701	20004904.0
1227.8201	19989980.0
1228.0701	19934284.0
1228.3201	19981526.0
1228.5701	19999898.0
1228.8201	19930016.0
1229.0701	19963012.0
1229.3201	20033772.0
1229.5701	19940300.0
1229.8201	19798962.0
1230.0701	19979340.0
1230.3201	19923502.0
1230.5701	19893908.0
1230.8201	19849146.0
1231.0701	19780072.0
1231.3201	19571610.0
1231.5701	19899088.0
1231.8201	19890630.0
1232.0701	19685922.0
1232.3201	19703866.0
1232.5701	19895410.0
1232.8201	19798614.0
1233.0701	19529824.0
1233.3201	19704816.0
1233.5701	18998958.0
1233.8201	19451416.0
1234.0701	19675176.0
1234.3201	19247430.0
1234.5701	19678740.0
1234.8201	19482486.0
1235.0701	19694890.0
1235.3201	19390568.0
1235.5701	19582022.0
1235.8201	18649272.0
1236.0701	18902056.0
1236.3201	19260114.0
1236.5701	19433254.0
1236.8201	19480814.0
1237.0701	19431530.0
1237.3201	19717050.0
1237.5701	19727698.0
1237.8201	19705738.0
1238.0701	19598324.0
1238.3201	19698492.0
1238.5701	19659882.0
1238.8201	19655654.0
1239.0701	19017206.0
1239.3201	19602990.0
1239.5701	18732778.0
1239.8201	19528398.0
1240.0701	19202396.0
1240.3201	19187548.0
1240.5701	19414200.0
1240.8201	19442890.0
1241.0701	19576400.0
1241.3201	19428370.0
1241.5701	19078530.0
1241.8201	19209074.0
1242.0701	19466028.0
1242.3201	18623808.0
1242.5701	19320924.0
1242.8201	19461834.0
1243.0701	19458550.0
1243.3201	18131846.0
1243.5701	19480116.0
1243.8201	19456758.0
1244.0701	19415500.0
1244.3201	19458470.0
1244.5701	19422064.0
1244.8201	19457418.0
1245.0701	19363998.0
1245.3201	19442912.0
1245.5701	19396294.0
1245.8201	19224758.0
1246.0701	19330396.0
1246.3201	19305464.0
1246.5701	19349752.0
1246.8201	19262674.0
1247.0701	18750490.0
1247.3201	19330080.0
1247.5701	19146718.0
1247.8201	19363918.0
1248.0701	19309864.0
1248.3201	19337752.0
1248.5701	19252034.0
1248.8201	19325266.0
1249.0701	19288162.0
1249.3201	19062068.0
1249.5701	19118772.0
1249.8201	19212966.0
1250.0701	19176632.0
1250.3201	19151856.0
1250.5701	19232416.0
1250.8201	18605518.0
1251.0701	18753214.0
1251.3201	18630350.0
1251.5701	18336750.0
1251.8201	17897796.0
1252.0701	18699404.0
1252.3201	18410458.0
1252.5701	19047898.0
1252.8201	18983940.0
1253.0701	18942786.0
1253.3201	18402212.0
1253.5701	19043018.0
1253.8201	19034538.0
1254.0701	19001498.0
1254.3201	19038300.0
1254.5701	19068862.0
1254.8201	18943428.0
1255.0701	18836908.0
1255.3201	19055750.0
1255.5701	18997850.0
1255.8201	18921074.0
1256.0701	18432246.0
1256.3201	18552548.0
1256.5701	18748006.0
1256.8201	18638930.0
1257.0701	18904052.0
1257.3201	18990322.0
1257.5701	19008968.0
1257.8201	18920234.0
1258.0701	17854984.0
1258.3201	18670964.0
1258.5701	18988894.0
1258.8201	18694312.0
1259.0701	18803164.0
1259.3201	18952952.0
1259.5701	18954952.0
1259.8201	18914892.0
1260.0701	18440070.0
1260.3201	18848756.0
1260.5701	18827996.0
1260.8201	18505338.0
1261.0701	18361542.0
1261.3201	18124052.0
1261.5701	18435798.0
1261.8201	18811000.0
1262.0701	18811996.0
1262.3201	18851372.0
1262.5701	18793900.0
1262.8201	18767476.0
1263.0701	18744800.0
1263.3201	18782486.0
1263.5701	18779644.0
1263.8201	17196766.0
1264.0701	18764782.0
1264.3201	18734920.0
1264.5701	18535260.0
1264.8201	18137112.0
1265.0701	18735194.0
1265.3201	18743518.0
1265.5701	18644286.0
1265.8201	18628360.0
1266.0701	18662718.0
1266.3201	18525512.0
1266.5701	18536358.0
1266.8201	18605266.0
1267.0701	18571706.0
1267.3201	18679068.0
1267.5701	18654516.0
1267.8201	17647766.0
1268.0701	18541824.0
1268.3201	18452700.0
1268.5701	18522494.0
1268.8201	18585396.0
1269.0701	18588222.0
1269.3201	18473602.0
1269.5701	18492756.0
1269.8201	18376682.0
1270.0701	18501992.0
1270.3201	18506780.0
1270.5701	18258806.0
1270.8201	18074796.0
1271.0701	18504308.0
1271.3201	18368860.0
1271.5701	18516010.0
1271.8201	18498892.0
1272.0701	18519438.0
1272.3201	18523820.0
1272.5701	18441682.0
1272.8201	18420202.0
1273.0701	18449020.0
1273.3201	18382502.0
1273.5701	18377458.0
1273.8201	18283058.0
1274.0701	18184160.0
1274.3201	18312358.0
1274.5701	18392476.0
1274.8201	18393138.0
1275.0701	18349598.0
1275.3201	18392638.0
1275.5701	18386102.0
1275.8201	18315640.0
1276.0701	18359372.0
1276.3201	18323750.0
1276.5701	18292162.0
1276.8201	18219988.0
1277.0701	18259498.0
1277.3201	18233018.0
1277.5701	18246572.0
1277.8201	18206130.0
1278.0701	18146470.0
1278.3201	18171594.0
1278.5701	18151902.0
1278.8201	18015090.0
1279.0701	17989972.0
1279.3201	17900496.0
1279.5701	17940466.0
1279.8201	17832020.0
1280.0701	17714604.0
1280.3201	17644904.0
1280.5701	17511526.0
1280.8201	16873882.0
1281.0701	17058438.0
1281.3201	16639022.0
1281.5701	15507062.0
1281.8201	13357485.0
1282.0701	15802507.0
1282.3201	16507791.0
1282.5701	16754358.0
1282.8201	17243538.0
1283.0701	17375428.0
1283.3201	17604062.0
1283.5701	17709706.0
1283.8201	17744386.0
1284.0701	17559646.0
1284.3201	17841598.0
1284.5701	17869476.0
1284.8201	17775738.0
1285.0701	17942416.0
1285.3201	17931268.0
1285.5701	17972766.0
1285.8201	17979312.0
1286.0701	17985008.0
1286.3201	17928136.0
1286.5701	17993736.0
1286.8201	17967624.0
1287.0701	17731658.0
1287.3201	17922280.0
1287.5701	17907550.0
1287.8201	17890938.0
1288.0701	17521982.0
1288.3201	17946282.0
1288.5701	17879082.0
1288.8201	17985042.0
1289.0701	17972008.0
1289.3201	17944530.0
1289.5701	17692886.0
1289.8201	17849602.0
1290.0701	16737679.0
1290.3201	17861008.0
1290.5701	17901644.0
1290.8201	17609644.0
1291.0701	17723478.0
1291.3201	17865422.0
1291.5701	17876750.0
1291.8201	17805050.0
1292.0701	17801214.0
1292.3201	17376932.0
1292.5701	17782382.0
1292.8201	17766612.0
1293.0701	17774546.0
1293.3201	17659342.0
1293.5701	17430384.0
1293.8201	17750484.0
1294.0701	17619368.0
1294.3201	17806140.0
1294.5701	17653260.0
1294.8201	17659528.0
1295.0701	17637426.0
1295.3201	17750496.0
1295.5701	17362010.0
1295.8201	17754250.0
1296.0701	17667196.0
1296.3201	17759100.0
1296.5701	17168998.0
1296.8201	17659192.0
1297.0701	17179654.0
1297.3201	17687472.0
1297.5701	16956052.0
1297.8201	17635298.0
1298.0701	17684076.0
1298.3201	17646578.0
1298.5701	17613042.0
1298.8201	17551568.0
1299.0701	17498850.0
1299.3201	17665836.0
1299.5701	17632844.0
1299.8201	17619742.0
1300.0701	17578644.0
1300.3201	17374430.0
1300.5701	17549396.0
1300.8201	17586684.0
1301.0701	17549832.0
1301.3201	17594204.0
1301.5701	17473932.0
1301.8201	17564610.0
1302.0701	17554784.0
1302.3201	17561256.0
1302.5701	17565422.0
1302.8201	17295002.0
1303.0701	16960964.0
1303.3201	17162030.0
1303.5701	17489428.0
1303.8201	17197916.0
1304.0701	17347218.0
1304.3201	17409814.0
1304.5701	17374624.0
1304.8201	17305058.0
1305.0701	17436324.0
1305.3201	17277126.0
1305.5701	17483968.0
1305.8201	17369124.0
1306.0701	17476064.0
1306.3201	16714829.0
1306.5701	17365276.0
1306.8201	17349994.0
1307.0701	17382128.0
1307.3201	17346050.0
1307.5701	17291186.0
1307.8201	17341350.0
1308.0701	17427330.0
1308.3201	17405908.0
1308.5701	17178902.0
1308.8201	17373132.0
1309.0701	17382678.0
1309.3201	17377742.0
1309.5701	16918602.0
1309.8201	16939846.0
1310.0701	17340156.0
1310.3201	17028336.0
1310.5701	17309720.0
1310.8201	17294708.0
1311.0701	17314120.0
1311.3201	17275398.0
1311.5701	17253762.0
1311.8201	16953486.0
1312.0701	16777492.0
1312.3201	14531944.0
1312.5701	17092842.0
1312.8201	17226424.0
1313.0701	17110982.0
1313.3201	17200584.0
1313.5701	16545092.0
1313.8201	17231928.0
1314.0701	17227638.0
1314.3201	17158216.0
1314.5701	17083310.0
1314.8201	16611429.0
1315.0701	14953377.0
1315.3201	16678907.0
1315.5701	17038234.0
1315.8201	16931842.0
1316.0701	17124682.0
1316.3201	17106552.0
1316.5701	17047400.0
1316.8201	17115180.0
1317.0701	17128910.0
1317.3201	17146324.0
1317.5701	16423536.0
1317.8201	16803360.0
1318.0701	16653192.0
1318.3201	17088814.0
1318.5701	17090434.0
1318.8201	17070114.0
1319.0701	16956520.0
1319.3201	17039690.0
1319.5701	16968536.0
1319.8201	16807740.0
1320.0701	16909682.0
1320.3201	17022274.0
1320.5701	17012534.0
1320.8201	16673728.0
1321.0701	16829772.0
1321.3201	16682216.0
1321.5701	16983066.0
1321.8201	16887724.0
1322.0701	16985742.0
1322.3201	16881186.0
1322.5701	16977396.0
1322.8201	16991780.0
1323.0701	16931908.0
1323.3201	16984586.0
1323.5701	16918790.0
1323.8201	16967342.0
1324.0701	16958016.0
1324.3201	16911216.0
1324.5701	16931160.0
1324.8201	16797488.0
1325.0701	16697906.0
1325.3201	16819086.0
1325.5701	16878878.0
1325.8201	16882340.0
1326.0701	16629265.0
1326.3201	16837418.0
1326.5701	16454556.0
1326.8201	16664665.0
1327.0701	16866030.0
1327.3201	16814114.0
1327.5701	16859700.0
1327.8201	16753700.0
1328.0701	16245938.0
1328.3201	16798096.0
1328.5701	16439708.0
1328.8201	15591811.0
1329.0701	16753810.0
1329.3201	16047988.0
1329.5701	16741091.0
1329.8201	16704997.0
1330.0701	16736555.0
1330.3201	16456859.0
1330.5701	16716287.0
1330.8201	16465290.0
1331.0701	16736765.0
1331.3201	16757269.0
1331.5701	16718684.0
1331.8201	14910028.0
1332.0701	16690146.0
1332.3201	16715537.0
1332.5701	16473767.0
1332.8201	16498874.0
1333.0701	16687183.0
1333.3201	16675139.0
1333.5701	16678440.0
1333.8201	16666479.0
1334.0701	16590757.0
1334.3201	16476731.0
1334.5701	16475777.0
1334.8201	16635362.0
1335.0701	16599254.0
1335.3201	15842901.0
1335.5701	16616007.0
1335.8201	16566114.0
1336.0701	16571291.0
1336.3201	16594128.0
1336.5701	16570883.0
1336.8201	16506704.0
1337.0701	16326332.0
1337.3201	16528519.0
1337.5701	16539579.0
1337.8201	16529031.0
1338.0701	16549424.0
1338.3201	16290780.0
1338.5701	16280288.0
1338.8201	16114281.0
1339.0701	16200266.0
1339.3201	15881819.0
1339.5701	16308578.0
1339.8201	16234117.0
1340.0701	16428937.0
1340.3201	16432441.0
1340.5701	16469184.0
1340.8201	16252405.0
1341.0701	16449671.0
1341.3201	16422530.0
1341.5701	16108368.0
1341.8201	16412165.0
1342.0701	16341345.0
1342.3201	16434442.0
1342.5701	16287709.0
1342.8201	16378281.0
1343.0701	16379066.0
1343.3201	16195370.0
1343.5701	16395274.0
1343.8201	16402546.0
1344.0701	16369237.0
1344.3201	16356181.0
1344.5701	16364071.0
1344.8201	16307571.0
1345.0701	16292983.0
1345.3201	16054477.0
1345.5701	16248445.0
1345.8201	15965702.0
1346.0701	16313879.0
1346.3201	16268552.0
1346.5701	16269891.0
1346.8201	16267901.0
1347.0701	16294085.0
1347.3201	16246155.0
1347.5701	16135724.0
1347.8201	16277678.0
1348.0701	16258916.0
1348.3201	16141711.0
1348.5701	16251315.0
1348.8201	16102999.0
1349.0701	16234058.0
1349.3201	16156568.0
1349.5701	15788404.0
1349.8201	16214899.0
1350.0701	15865711.0
1350.3201	15694847.0
1350.5701	16220386.0
1350.8201	16216029.0
1351.0701	16176658.0
1351.3201	16203876.0
1351.5701	16195093.0
1351.8201	16053352.0
1352.0701	16165796.0
1352.3201	16024803.0
1352.5701	16142521.0
1352.8201	16126581.0
1353.0701	16157175.0
1353.3201	16050619.0
1353.5701	16112986.0
1353.8201	16133486.0
1354.0701	16046601.0
1354.3201	16098365.0
1354.5701	15759177.0
1354.8201	15753462.0
1355.0701	16032066.0
1355.3201	15796971.0
1355.5701	16058711.0
1355.8201	15803529.0
1356.0701	15738591.0
1356.3201	16035168.0
1356.5701	15094909.0
1356.8201	15995824.0
1357.0701	15957412.0
1357.3201	15968921.0
1357.5701	15991677.0
1357.8201	16022064.0
1358.0701	15884820.0
1358.3201	15980632.0
1358.5701	15991895.0
1358.8201	15643200.0
1359.0701	15799273.0
1359.3201	15962753.0
1359.5701	15955105.0
1359.8201	15891411.0
1360.0701	15411953.0
1360.3201	15792332.0
1360.5701	15882566.0
1360.8201	15918225.0
1361.0701	15921635.0
1361.3201	15906027.0
1361.5701	15913940.0
1361.8201	15890794.0
1362.0701	15804806.0
1362.3201	15880065.0
1362.5701	15098432.0
1362.8201	15852219.0
1363.0701	15693823.0
1363.3201	15829273.0
1363.5701	15743819.0
1363.8201	15860924.0
1364.0701	15844012.0
1364.3201	15246619.0
1364.5701	15845702.0
1364.8201	15793107.0
1365.0701	15550538.0
1365.3201	15814838.0
1365.5701	15772694.0
1365.8201	15703897.0
1366.0701	15773639.0
1366.3201	15753241.0
1366.5701	15784750.0
1366.8201	15052165.0
1367.0701	15718431.0
1367.3201	15780456.0
1367.5701	15720883.0
1367.8201	15751893.0
1368.0701	15507376.0
1368.3201	14910383.0
1368.5701	15717389.0
1368.8201	15587588.0
1369.0701	15705493.0
1369.3201	15409924.0
1369.5701	15659124.0
1369.8201	14670714.0
1370.0701	15661342.0
1370.3201	15532119.0
1370.5701	15245514.0
1370.8201	15665913.0
1371.0701	15353000.0
1371.3201	15660735.0
1371.5701	15664580.0
1371.8201	15512431.0
1372.0701	15199937.0
1372.3201	15582091.0
1372.5701	15138672.0
1372.8201	15503390.0
1373.0701	15458494.0
1373.3201	14904330.0
1373.5701	15470023.0
1373.8201	15596602.0
1374.0701	15260596.0
1374.3201	14794177.0
1374.5701	15536622.0
1374.8201	15549875.0
1375.0701	15412989.0
1375.3201	15482491.0
1375.5701	14724930.0
1375.8201	15448777.0
1376.0701	15537640.0
1376.3201	15328121.0
1376.5701	15042420.0
1376.8201	15529789.0
1377.0701	15519681.0
1377.3201	15409719.0
1377.5701	15052376.0
1377.8201	15446796.0
1378.0701	15497805.0
1378.3201	15470726.0
1378.5701	15461741.0
1378.8201	15446003.0
1379.0701	15364096.0
1379.3201	15443823.0
1379.5701	15437383.0
1379.8201	15033249.0
1380.0701	15394520.0
1380.3201	15436784.0
1380.5701	15427879.0
1380.8201	15316695.0
1381.0701	15388639.0
1381.3201	15333578.0
1381.5701	14980610.0
1381.8201	15337998.0
1382.0701	15407918.0
1382.3201	15216704.0
1382.5701	15180350.0
1382.8201	15336214.0
1383.0701	14958397.0
1383.3201	15250866.0
1383.5701	15314371.0
1383.8201	15367076.0
1384.0701	15321007.0
1384.3201	15293112.0
1384.5701	15306553.0
1384.8201	14835343.0
1385.0701	15000011.0
1385.3201	15237261.0
1385.5701	15252831.0
1385.8201	15256268.0
1386.0701	15280301.0
1386.3201	14594917.0
1386.5701	15054570.0
1386.8201	15198323.0
1387.0701	15093578.0
1387.3201	15260002.0
1387.5701	15179336.0
1387.8201	15172223.0
1388.0701	15245431.0
1388.3201	15242245.0
1388.5701	15171740.0
1388.8201	15163773.0
1389.0701	15214772.0
1389.3201	15105961.0
1389.5701	14985582.0
1389.8201	14407814.0
1390.0701	15204896.0
1390.3201	15113787.0
1390.5701	15011011.0
1390.8201	15126657.0
1391.0701	15164251.0
1391.3201	15157404.0
1391.5701	15166664.0
1391.8201	14975235.0
1392.0701	15147602.0
1392.3201	15035912.0
1392.5701	15021835.0
1392.8201	15104801.0
1393.0701	15110625.0
1393.3201	15024380.0
1393.5701	15084422.0
1393.8201	14906336.0
1394.0701	14747785.0
1394.3201	15007034.0
1394.5701	15036456.0
1394.8201	14898117.0
1395.0701	14580922.0
1395.3201	14869422.0
1395.5701	14995037.0
1395.8201	14985609.0
1396.0701	14895657.0
1396.3201	14996615.0
1396.5701	14949736.0
1396.8201	14913569.0
1397.0701	15025845.0
1397.3201	15013582.0
1397.5701	14978416.0
1397.8201	14804897.0
1398.0701	14953487.0
1398.3201	14982651.0
1398.5701	14727789.0
1398.8201	14983090.0
1399.0701	14784853.0
1399.3201	14897672.0
1399.5701	13949539.0
1399.8201	14348700.0
1400.0701	14938218.0
1400.3201	14742075.0
1400.5701	14621378.0
1400.8201	14074868.0
1401.0701	14882937.0
1401.3201	14924692.0
1401.5701	14909750.0
1401.8201	14876720.0
1402.0701	14819044.0
1402.3201	14864827.0
1402.5701	14232575.0
1402.8201	14603568.0
1403.0701	14865427.0
1403.3201	14871706.0
1403.5701	14832259.0
1403.8201	14636073.0
1404.0701	14722061.0
1404.3201	14817390.0
1404.5701	14848002.0
1404.8201	14766374.0
1405.0701	14854490.0
1405.3201	14833535.0
1405.5701	14822149.0
1405.8201	14710162.0
1406.0701	14487537.0
1406.3201	14700827.0
1406.5701	14728610.0
1406.8201	14719114.0
1407.0701	14657324.0
1407.3201	14469359.0
1407.5701	14686330.0
1407.8201	14742013.0
1408.0701	14088190.0
1408.3201	14661301.0
1408.5701	14690765.0
1408.8201	14749182.0
1409.0701	14692787.0
1409.3201	14560564.0
1409.5701	14645889.0
1409.8201	14577728.0
1410.0701	14701210.0
1410.3201	14588361.0
1410.5701	14667067.0
1410.8201	14588993.0
1411.0701	14559817.0
1411.3201	13806173.0
1411.5701	14521451.0
1411.8201	14528598.0
1412.0701	13825347.0
1412.3201	14497061.0
1412.5701	14444192.0
1412.8201	13669225.0
1413.0701	14395818.0
1413.3201	14559582.0
1413.5701	14565884.0
1413.8201	14359086.0
1414.0701	14589051.0
1414.3201	14564655.0
1414.5701	14542994.0
1414.8201	14523093.0
1415.0701	14407499.0
1415.3201	14555219.0
1415.5701	14255422.0
1415.8201	14126875.0
1416.0701	14338913.0
1416.3201	14446712.0
1416.5701	14522944.0
1416.8201	14395483.0
1417.0701	14419529.0
1417.3201	14554731.0
1417.5701	14508368.0
1417.8201	14477462.0
1418.0701	14377614.0
1418.3201	13926334.0
1418.5701	14471867.0
1418.8201	14283838.0
1419.0701	14411687.0
1419.3201	14450677.0
1419.5701	14152693.0
1419.8201	14445416.0
1420.0701	14278476.0
1420.3201	14059321.0
1420.5701	13729217.0
1420.8201	14446714.0
1421.0701	14324661.0
1421.3201	14274668.0
1421.5701	14443176.0
1421.8201	14357110.0
1422.0701	13835853.0
1422.3201	14121009.0
1422.5701	13758108.0
1422.8201	14327375.0
1423.0701	14403527.0
1423.3201	14316805.0
1423.5701	13118176.0
1423.8201	13777912.0
1424.0701	14241027.0
1424.3201	14261514.0
1424.5701	14347463.0
1424.8201	14185517.0
1425.0701	14148126.0
1425.3201	13599041.0
1425.5701	14153311.0
1425.8201	13692615.0
1426.0701	13676453.0
1426.3201	14276781.0
1426.5701	14272051.0
1426.8201	14208113.0
1427.0701	13042140.0
1427.3201	14191802.0
1427.5701	14224984.0
1427.8201	14307222.0
1428.0701	14167689.0
1428.3201	14224233.0
1428.5701	13174768.0
1428.8201	14242853.0
1429.0701	13651841.0
1429.3201	12750068.0
1429.5701	14089498.0
1429.8201	13972576.0
1430.0701	14055478.0
1430.3201	14186367.0
1430.5701	13900876.0
1430.8201	13203124.0
1431.0701	14014709.0
1431.3201	14063069.0
1431.5701	14149727.0
1431.8201	13874827.0
1432.0701	14171072.0
1432.3201	14009478.0
1432.5701	14203997.0
1432.8201	14156112.0
1433.0701	14033063.0
1433.3201	14120283.0
1433.5701	13985839.0
1433.8201	14071312.0
1434.0701	14086925.0
1434.3201	14028288.0
1434.5701	13983123.0
1434.8201	14058920.0
1435.0701	14030870.0
1435.3201	13922355.0
1435.5701	14050004.0
1435.8201	14080399.0
1436.0701	13790856.0
1436.3201	14075136.0
1436.5701	14111016.0
1436.8201	14073766.0
1437.0701	13940993.0
1437.3201	13946748.0
1437.5701	14018606.0
1437.8201	13965677.0
1438.0701	13927459.0
1438.3201	14028904.0
1438.5701	14015927.0
1438.8201	14001724.0
1439.0701	13829600.0
1439.3201	13929402.0
1439.5701	13810547.0
1439.8201	13663397.0
1440.0701	11215517.0
1440.3201	13222316.0
1440.5701	13774348.0
1440.8201	13988016.0
1441.0701	13983183.0
1441.3201	13863915.0
1441.5701	13803483.0
1441.8201	13784201.0
1442.0701	12708778.0
1442.3201	13794414.0
1442.5701	13668706.0
1442.8201	13236366.0
1443.0701	13701427.0
1443.3201	13796018.0
1443.5701	13853264.0
1443.8201	13423973.0
1444.0701	13719472.0
1444.3201	12754765.0
1444.5701	13894835.0
1444.8201	13869891.0
1445.0701	13858925.0
1445.3201	13892008.0
1445.5701	13713264.0
1445.8201	13369350.0
1446.0701	13674425.0
1446.3201	13551781.0
1446.5701	13571114.0
1446.8201	13765809.0
1447.0701	13784949.0
1447.3201	13841237.0
1447.5701	13744365.0
1447.8201	13658858.0
1448.0701	13155294.0
1448.3201	13529861.0
1448.5701	13606372.0
1448.8201	13801396.0
1449.0701	13356190.0
1449.3201	13680536.0
1449.5701	13792245.0
1449.8201	13066513.0
1450.0701	13488570.0
1450.3201	13147301.0
1450.5701	13682258.0
1450.8201	13659748.0
1451.0701	13330372.0
1451.3201	12511816.0
1451.5701	13748111.0
1451.8201	13672358.0
1452.0701	13596968.0
1452.3201	13184320.0
1452.5701	13486765.0
1452.8201	13575457.0
1453.0701	13565449.0
1453.3201	13576521.0
1453.5701	13645916.0
1453.8201	13437016.0
1454.0701	13442431.0
1454.3201	11681629.0
1454.5701	13147381.0
1454.8201	13551624.0
1455.0701	13575328.0
1455.3201	13551012.0
1455.5701	12389224.0
1455.8201	13464982.0
1456.0701	13608453.0
1456.3201	13584390.0
1456.5701	12793490.0
1456.8201	13175232.0
1457.0701	13579222.0
1457.3201	13518596.0
1457.5701	13537180.0
1457.8201	13541837.0
1458.0701	13557524.0
1458.3201	13576845.0
1458.5701	13606797.0
1458.8201	13106086.0
1459.0701	13495620.0
1459.3201	13174936.0
1459.5701	13540371.0
1459.8201	13474313.0
1460.0701	13227370.0
1460.3201	13012821.0
1460.5701	13406134.0
1460.8201	13546432.0
1461.0701	13441178.0
1461.3201	13523275.0
1461.5701	12996243.0
1461.8201	13472850.0
1462.0701	13199729.0
1462.3201	13497440.0
1462.5701	13485926.0
1462.8201	13006278.0
1463.0701	13178094.0
1463.3201	13493127.0
1463.5701	13068575.0
1463.8201	12973897.0
1464.0701	13245188.0
1464.3201	13403386.0
1464.5701	13431927.0
1464.8201	12944581.0
1465.0701	12068848.0
1465.3201	12292623.0
1465.5701	13231637.0
1465.8201	13328411.0
1466.0701	13435933.0
1466.3201	13416306.0
1466.5701	13353458.0
1466.8201	13372301.0
1467.0701	13400791.0
1467.3201	13154063.0
1467.5701	13347637.0
1467.8201	13264285.0
1468.0701	13155718.0
1468.3201	13285118.0
1468.5701	13338434.0
1468.8201	13360311.0
1469.0701	12714707.0
1469.3201	13392059.0
1469.5701	13295976.0
1469.8201	13276119.0
1470.0701	12758726.0
1470.3201	12405502.0
1470.5701	13311291.0
1470.8201	12914999.0
1471.0701	12869251.0
1471.3201	13331003.0
1471.5701	12965640.0
1471.8201	13081920.0
1472.0701	12647232.0
1472.3201	12767224.0
1472.5701	13265882.0
1472.8201	13241043.0
1473.0701	13267843.0
1473.3201	13155092.0
1473.5701	13287354.0
1473.8201	12590102.0
1474.0701	13121605.0
1474.3201	13248453.0
1474.5701	13126485.0
1474.8201	13151623.0
1475.0701	12164587.0
1475.3201	12876186.0
1475.5701	12704080.0
1475.8201	13123296.0
1476.0701	13226452.0
1476.3201	13162073.0
1476.5701	13090400.0
1476.8201	12843364.0
1477.0701	12839460.0
1477.3201	13082326.0
1477.5701	13174729.0
1477.8201	12940756.0
1478.0701	12525264.0
1478.3201	12294558.0
1478.5701	13208911.0
1478.8201	13095931.0
1479.0701	13106661.0
1479.3201	13060166.0
1479.5701	13104606.0
1479.8201	13108780.0
1480.0701	12972580.0
1480.3201	13068346.0
1480.5701	12590735.0
1480.8201	12882048.0
1481.0701	13008100.0
1481.3201	13126144.0
1481.5701	12598957.0
1481.8201	13069094.0
1482.0701	13066015.0
1482.3201	12989589.0
1482.5701	11960409.0
1482.8201	13002941.0
1483.0701	13030616.0
1483.3201	12618718.0
1483.5701	12806455.0
1483.8201	12861204.0
1484.0701	12976217.0
1484.3201	12713808.0
1484.5701	13030933.0
1484.8201	12801868.0
1485.0701	12474349.0
1485.3201	12908420.0
1485.5701	13031887.0
1485.8201	12975553.0
1486.0701	12361001.0
1486.3201	12669418.0
1486.5701	12758597.0
1486.8201	12787950.0
1487.0701	12510674.0
1487.3201	12143100.0
1487.5701	11142894.0
1487.8201	8237103.5
1488.0701	12044008.0
1488.3201	12722481.0
1488.5701	12805277.0
1488.8201	12876155.0
1489.0701	12883660.0
1489.3201	12915998.0
1489.5701	12832443.0
1489.8201	12169718.0
1490.0701	12840029.0
1490.3201	12463259.0
1490.5701	12878542.0
1490.8201	12704709.0
1491.0701	12124462.0
1491.3201	12868294.0
1491.5701	12776099.0
1491.8201	12766697.0
1492.0701	12911764.0
1492.3201	12868592.0
1492.5701	12822495.0
1492.8201	12742931.0
1493.0701	12895906.0
1493.3201	12809639.0
1493.5701	12810379.0
1493.8201	12407824.0
1494.0701	12855188.0
1494.3201	12887024.0
1494.5701	12726401.0
1494.8201	12634707.0
1495.0701	12848276.0
1495.3201	12787082.0
1495.5701	11668012.0
1495.8201	12474861.0
1496.0701	12714242.0
1496.3201	12735768.0
1496.5701	12784606.0
1496.8201	12127381.0
1497.0701	12789856.0
1497.3201	12654031.0
1497.5701	12822790.0
1497.8201	12691808.0
1498.0701	11968580.0
1498.3201	12589686.0
1498.5701	12729338.0
1498.8201	12057306.0
1499.0701	12716960.0
1499.3201	12756352.0
1499.5701	12700285.0
1499.8201	12697684.0
1500.0701	12705384.0
1500.3201	12541097.0
1500.5701	12715037.0
1500.8201	12490409.0
1501.0701	12558076.0
1501.3201	12108933.0
1501.5701	12565573.0
1501.8201	11974170.0
1502.0701	12354727.0
1502.3201	10992321.0
1502.5701	9049340.0
1502.8201	12169193.0
1503.0701	12476308.0
1503.3201	12531074.0
1503.5701	12336116.0
1503.8201	11788815.0
1504.0701	9230119.0
1504.3201	12263055.0
1504.5701	12021509.0
1504.8201	10137993.0
1505.0701	11404881.0
1505.3201	12317864.0
1505.5701	12599894.0
1505.8201	12514335.0
1506.0701	12528194.0
1506.3201	12292057.0
1506.5701	12599506.0
1506.8201	12551109.0
1507.0701	12481526.0
1507.3201	12549975.0
1507.5701	12574599.0
1507.8201	11744143.0
1508.0701	12563742.0
1508.3201	12552360.0
1508.5701	12588078.0
1508.8201	12536742.0
1509.0701	12562155.0
1509.3201	12485909.0
1509.5701	11308984.0
1509.8201	12410246.0
1510.0701	12319065.0
1510.3201	12535260.0
1510.5701	12404479.0
1510.8201	12531738.0
1511.0701	12518208.0
1511.3201	12471702.0
1511.5701	12230429.0
1511.8201	12219831.0
1512.0701	12171457.0
1512.3201	11835390.0
1512.5701	12445333.0
1512.8201	12460440.0
1513.0701	12486424.0
1513.3201	12411294.0
1513.5701	11686506.0
1513.8201	12264217.0
1514.0701	12476138.0
1514.3201	11957275.0
1514.5701	12392227.0
1514.8201	12432551.0
1515.0701	12468799.0
1515.3201	12356139.0
1515.5701	12172561.0
1515.8201	11862195.0
1516.0701	12193114.0
1516.3201	12016844.0
1516.5701	12392319.0
1516.8201	12046913.0
1517.0701	12398857.0
1517.3201	12331900.0
1517.5701	12205268.0
1517.8201	12265990.0
1518.0701	12285824.0
1518.3201	12017531.0
1518.5701	12233715.0
1518.8201	12325675.0
1519.0701	12308072.0
1519.3201	12320717.0
1519.5701	12031898.0
1519.8201	12016644.0
1520.0701	12136891.0
1520.3201	12123013.0
1520.5701	12301229.0
1520.8201	11242838.0
1521.0701	12191575.0
1521.3201	12233345.0
1521.5701	12314454.0
1521.8201	11651876.0
1522.0701	11560141.0
1522.3201	12291248.0
1522.5701	11948641.0
1522.8201	12210445.0
1523.0701	11771021.0
1523.3201	12151761.0
1523.5701	12192489.0
1523.8201	12228837.0
1524.0701	11999293.0
1524.3201	11820734.0
1524.5701	11690443.0
1524.8201	12272057.0
1525.0701	12134703.0
1525.3201	12155444.0
1525.5701	12232678.0
1525.8201	12131218.0
1526.0701	12124977.0
1526.3201	11668240.0
1526.5701	12163670.0
1526.8201	12155738.0
1527.0701	12114983.0
1527.3201	12195798.0
1527.5701	12175470.0
1527.8201	12132573.0
1528.0701	12015564.0
1528.3201	12078996.0
1528.5701	12111277.0
1528.8201	12103931.0
1529.0701	12035991.0
1529.3201	11016923.0
1529.5701	10779227.0
1529.8201	11964926.0
1530.0701	11924110.0
1530.3201	12096548.0
1530.5701	12015506.0
1530.8201	12026858.0
1531.0701	12097718.0
1531.3201	12087612.0
1531.5701	11612482.0
1531.8201	11970677.0
1532.0701	12076926.0
1532.3201	12045003.0
1532.5701	12057307.0
1532.8201	12009609.0
1533.0701	11967151.0
1533.3201	12031421.0
1533.5701	11083395.0
1533.8201	12016748.0
1534.0701	11977572.0
1534.3201	11435654.0
1534.5701	12007378.0
1534.8201	11750582.0
1535.0701	11867037.0
1535.3201	11977602.0
1535.5701	12031877.0
1535.8201	11960212.0
1536.0701	11804576.0
1536.3201	11980078.0
1536.5701	12030806.0
1536.8201	12011207.0
1537.0701	11971578.0
1537.3201	12009936.0
1537.5701	10907134.0
1537.8201	11768350.0
1538.0701	11861293.0
1538.3201	11925229.0
1538.5701	11681118.0
1538.8201	11912221.0
1539.0701	11913194.0
1539.3201	11884889.0
1539.5701	10646454.0
1539.8201	11766404.0
1540.0701	11572895.0
1540.3201	11452094.0
1540.5701	11893597.0
1540.8201	11871193.0
1541.0701	11874787.0
1541.3201	11874254.0
1541.5701	11785700.0
1541.8201	11798932.0
1542.0701	11585465.0
1542.3201	11241170.0
1542.5701	11846525.0
1542.8201	11783074.0
1543.0701	11840734.0
1543.3201	11749714.0
1543.5701	11773760.0
1543.8201	11808589.0
1544.0701	11826347.0
1544.3201	11753236.0
1544.5701	11777687.0
1544.8201	11807738.0
1545.0701	11639332.0
1545.3201	11765389.0
1545.5701	11805373.0
1545.8201	11763010.0
1546.0701	11783269.0
1546.3201	11729879.0
1546.5701	11626766.0
1546.8201	11788510.0
1547.0701	11451196.0
1547.3201	11714627.0
1547.5701	11501067.0
1547.8201	11281226.0
1548.0701	11626959.0
1548.3201	11745531.0
1548.5701	11598335.0
1548.8201	11628432.0
1549.0701	11660187.0
1549.3201	11505742.0
1549.5701	11449949.0
1549.8201	11555419.0
1550.0701	11213615.0
1550.3201	11678602.0
1550.5701	11666462.0
1550.8201	11678783.0
1551.0701	11577813.0
1551.3201	11582815.0
1551.5701	11706989.0
1551.8201	11506128.0
1552.0701	11600423.0
1552.3201	11524842.0
1552.5701	11683409.0
1552.8201	11619776.0
1553.0701	11112947.0
1553.3201	11127821.0
1553.5701	11595419.0
1553.8201	11310825.0
1554.0701	11472960.0
1554.3201	11050405.0
1554.5701	11514437.0
1554.8201	11566255.0
1555.0701	11380591.0
1555.3201	11457735.0
1555.5701	11094043.0
1555.8201	10802334.0
1556.0701	11353003.0
1556.3201	11463108.0
1556.5701	11434932.0
1556.8201	11486099.0
1557.0701	11416652.0
1557.3201	11496102.0
1557.5701	11515029.0
1557.8201	11526259.0
1558.0701	11534118.0
1558.3201	11511288.0
1558.5701	11165124.0
1558.8201	11083838.0
1559.0701	10920828.0
1559.3201	11213442.0
1559.5701	11490591.0
1559.8201	11385202.0
1560.0701	11568103.0
1560.3201	11433218.0
1560.5701	11453248.0
1560.8201	11522986.0
1561.0701	11466608.0
1561.3201	11490592.0
1561.5701	11464519.0
1561.8201	11387360.0
1562.0701	10398427.0
1562.3201	11422855.0
1562.5701	11524019.0
1562.8201	11480182.0
1563.0701	10918076.0
1563.3201	10880485.0
1563.5701	11460871.0
1563.8201	11330946.0
1564.0701	11372160.0
1564.3201	11442570.0
1564.5701	11175504.0
1564.8201	11091419.0
1565.0701	11466045.0
1565.3201	11107042.0
1565.5701	11285736.0
1565.8201	11356527.0
1566.0701	11087693.0
1566.3201	10862497.0
1566.5701	11080963.0
1566.8201	11425296.0
1567.0701	11172089.0
1567.3201	10811441.0
1567.5701	11222249.0
1567.8201	11048785.0
1568.0701	11140306.0
1568.3201	11125773.0
1568.5701	10743212.0
1568.8201	11239500.0
1569.0701	11136017.0
1569.3201	10106867.0
1569.5701	11152858.0
1569.8201	11173788.0
1570.0701	11163376.0
1570.3201	11119589.0
1570.5701	11187277.0
1570.8201	11161259.0
1571.0701	11193346.0
1571.3201	11208775.0
1571.5701	11165661.0
1571.8201	11250342.0
1572.0701	11255081.0
1572.3201	10401545.0
1572.5701	11211054.0
1572.8201	11137698.0
1573.0701	11130809.0
1573.3201	11244894.0
1573.5701	11238887.0
1573.8201	11190339.0
1574.0701	9154466.0
1574.3201	10915942.0
1574.5701	10973185.0
1574.8201	9030426.0
1575.0701	10670042.0
1575.3201	11157885.0
1575.5701	11225650.0
1575.8201	11207931.0
1576.0701	11050733.0
1576.3201	10779668.0
1576.5701	8248846.0
1576.8201	9814616.0
1577.0701	10309217.0
1577.3201	10845755.0
1577.5701	11213503.0
1577.8201	11105835.0
1578.0701	11218153.0
1578.3201	11202245.0
1578.5701	11030028.0
1578.8201	10789817.0
1579.0701	11031070.0
1579.3201	11229532.0
1579.5701	11221822.0
1579.8201	10762702.0
1580.0701	11039634.0
1580.3201	11212626.0
1580.5701	11027930.0
1580.8201	11191204.0
1581.0701	11052669.0
1581.3201	11142974.0
1581.5701	10897038.0
1581.8201	9928716.0
1582.0701	10903081.0
1582.3201	10291074.0
1582.5701	11152047.0
1582.8201	11073484.0
1583.0701	11089048.0
1583.3201	10343800.0
1583.5701	10600567.0
1583.8201	10716379.0
1584.0701	11073728.0
1584.3201	11057546.0
1584.5701	10966019.0
1584.8201	11007489.0
1585.0701	10935623.0
1585.3201	10591916.0
1585.5701	10978533.0
1585.8201	10849634.0
1586.0701	10727467.0
1586.3201	10548927.0
1586.5701	10854853.0
1586.8201	10093994.0
1587.0701	10826488.0
1587.3201	10658517.0
1587.5701	10768298.0
1587.8201	10088446.0
1588.0701	10332864.0
1588.3201	10321917.0
1588.5701	9987086.0
1588.8201	8654069.0
1589.0701	10195241.0
1589.3201	10542811.0
1589.5701	10130136.0
1589.8201	10443116.0
1590.0701	10564798.0
1590.3201	10335670.0
1590.5701	9966076.0
1590.8201	10661851.0
1591.0701	10273703.0
1591.3201	10454184.0
1591.5701	10890184.0
1591.8201	10802412.0
1592.0701	10558692.0
1592.3201	10897804.0
1592.5701	10941519.0
1592.8201	10584916.0
1593.0701	10722916.0
1593.3201	10769897.0
1593.5701	10928472.0
1593.8201	10752583.0
1594.0701	10560465.0
1594.3201	10836563.0
1594.5701	10916615.0
1594.8201	10893299.0
1595.0701	10885770.0
1595.3201	10304489.0
1595.5701	10347736.0
1595.8201	10703681.0
1596.0701	9475617.0
1596.3201	10665527.0
1596.5701	10266542.0
1596.8201	10813337.0
1597.0701	10676213.0
1597.3201	10931576.0
1597.5701	10907545.0
1597.8201	10884041.0
1598.0701	10093027.0
1598.3201	10783530.0
1598.5701	10915887.0
1598.8201	10711819.0
1599.0701	10810891.0
1599.3201	10856781.0
1599.5701	10846693.0
1599.8201	10748079.0
1600.0701	10848342.0
1600.3201	10666965.0
1600.5701	9777867.0
1600.8201	10267793.0
1601.0701	10419066.0
1601.3201	10814603.0
1601.5701	10561213.0
1601.8201	10800216.0
1602.0701	10304970.0
1602.3201	10729094.0
1602.5701	10767978.0
1602.8201	10773074.0
1603.0701	10764405.0
1603.3201	10738004.0
1603.5701	10674928.0
1603.8201	10672582.0
1604.0701	9770697.0
1604.3201	10407896.0
1604.5701	10658330.0
1604.8201	10737155.0
1605.0701	10398569.0
1605.3201	10699423.0
1605.5701	10691341.0
1605.8201	10398327.0
1606.0701	9753065.0
1606.3201	10627957.0
1606.5701	10640286.0
1606.8201	10645675.0
1607.0701	10180399.0
1607.3201	10294551.0
1607.5701	10538087.0
1607.8201	10530448.0
1608.0701	10554596.0
1608.3201	10527263.0
1608.5701	10513835.0
1608.8201	10364112.0
1609.0701	10296532.0
1609.3201	10252354.0
1609.5701	9369079.0
1609.8201	10257967.0
1610.0701	10135138.0
1610.3201	9476130.0
1610.5701	10158990.0
1610.8201	10172501.0
1611.0701	10164447.0
1611.3201	10160946.0
1611.5701	9940609.0
1611.8201	10288833.0
1612.0701	10325576.0
1612.3201	10290922.0
1612.5701	9918533.0
1612.8201	10359838.0
1613.0701	10401099.0
1613.3201	10400809.0
1613.5701	9855609.0
1613.8201	10338597.0
1614.0701	10458769.0
1614.3201	10486766.0
1614.5701	10495962.0
1614.8201	10431884.0
1615.0701	9745273.0
1615.3201	10041757.0
1615.5701	9766739.0
1615.8201	9687393.0
1616.0701	10523913.0
1616.3201	10026146.0
1616.5701	9820054.0
1616.8201	10460714.0
1617.0701	10468234.0
1617.3201	10493266.0
1617.5701	10310710.0
1617.8201	10361463.0
1618.0701	9963460.0
1618.3201	10454159.0
1618.5701	9885399.0
1618.8201	10341099.0
1619.0701	10475369.0
1619.3201	10369482.0
1619.5701	9874131.0
1619.8201	9293831.0
1620.0701	10346988.0
1620.3201	9919488.0
1620.5701	10422721.0
1620.8201	9955485.0
1621.0701	10467485.0
1621.3201	10119231.0
1621.5701	9873328.0
1621.8201	10457348.0
1622.0701	10459702.0
1622.3201	10441288.0
1622.5701	10077059.0
1622.8201	10331707.0
1623.0701	10113921.0
1623.3201	10270217.0
1623.5701	9886949.0
1623.8201	10374962.0
1624.0701	9884775.0
1624.3201	10359913.0
1624.5701	10270580.0
1624.8201	10402709.0
1625.0701	10392632.0
1625.3201	10295278.0
1625.5701	10386442.0
1625.8201	10301455.0
1626.0701	10310367.0
1626.3201	10257499.0
1626.5701	10359136.0
1626.8201	10344010.0
1627.0701	10306889.0
1627.3201	10322264.0
1627.5701	10288381.0
1627.8201	10341923.0
1628.0701	10270374.0
1628.3201	10316861.0
1628.5701	10215315.0
1628.8201	10315768.0
1629.0701	10253700.0
1629.3201	9877192.0
1629.5701	10220979.0
1629.8201	10131229.0
1630.0701	10187978.0
1630.3201	10275452.0
1630.5701	10309383.0
1630.8201	10284623.0
1631.0701	9899852.0
1631.3201	10161102.0
1631.5701	9530488.0
1631.8201	10216315.0
1632.0701	10255847.0
1632.3201	9974115.0
1632.5701	10029166.0
1632.8201	10254454.0
1633.0701	9958311.0
1633.3201	9782993.0
1633.5701	9953858.0
1633.8201	10172451.0
1634.0701	10171898.0
1634.3201	10177448.0
1634.5701	9981479.0
1634.8201	10106530.0
1635.0701	10143375.0
1635.3201	10059128.0
1635.5701	10102375.0
1635.8201	10030069.0
1636.0701	10077802.0
1636.3201	9390409.0
1636.5701	9198463.0
1636.8201	9843447.0
1637.0701	9981607.0
1637.3201	9963268.0
1637.5701	9911037.0
1637.8201	9874813.0
1638.0701	8102382.5
1638.3201	9550305.0
1638.57	9717720.0
1638.82	9763531.0
1639.07	9687758.0
1639.32	9283478.0
1639.57	9465641.0
1639.82	9089447.0
1640.07	9528793.0
1640.32	9425921.0
1640.57	9125599.0
1640.82	9208805.0
1641.07	9389049.0
1641.32	9209743.0
1641.57	9486386.0
1641.82	9477945.0
1642.07	9643522.0
1642.32	9743131.0
1642.57	9746215.0
1642.82	9792006.0
1643.07	9816494.0
1643.32	9792444.0
1643.57	9187167.0
1643.82	9833620.0
1644.07	9763371.0
1644.32	9699116.0
1644.57	9019461.0
1644.82	9840103.0
1645.07	9843113.0
1645.32	9823739.0
1645.57	9696842.0
1645.82	9931646.0
1646.07	9891617.0
1646.32	9870665.0
1646.57	9634145.0
1646.82	9773701.0
1647.07	9667517.0
1647.32	9633265.0
1647.57	9856532.0
1647.82	9884332.0
1648.07	9767395.0
1648.32	9844075.0
1648.57	8966813.0
1648.82	9757602.0
1649.07	9789309.0
1649.32	9708257.0
1649.57	9815056.0
1649.82	9869082.0
1650.07	9893091.0
1650.32	9868271.0
1650.57	9475866.0
1650.82	9887230.0
1651.07	9880178.0
1651.32	9864928.0
1651.57	9842749.0
1651.82	9766063.0
1652.07	9755196.0
1652.32	9486408.0
1652.57	9641224.0
1652.82	9854882.0
1653.07	9844688.0
1653.32	9803679.0
1653.57	9663581.0
1653.82	9363837.0
1654.07	9701977.0
1654.32	9500602.0
1654.57	9640714.0
1654.82	9606647.0
1655.07	9506670.0
1655.32	9676019.0
1655.57	9637640.0
1655.82	9760859.0
1656.07	9003914.0
1656.32	9702404.0
1656.57	9780171.0
1656.82	9732661.0
1657.07	9439196.0
1657.32	9772369.0
1657.57	9684627.0
1657.82	9660543.0
1658.07	9569852.0
1658.32	9730931.0
1658.57	9420246.0
1658.82	9497396.0
1659.07	9612191.0
1659.32	9596490.0
1659.57	9663938.0
1659.82	9665470.0
1660.07	9695794.0
1660.32	9731352.0
1660.57	9659948.0
1660.82	9650361.0
1661.07	9634188.0
1661.32	9449792.0
1661.57	9661847.0
1661.82	9663595.0
1662.07	9333877.0
1662.32	9630052.0
1662.57	9504262.0
1662.82	9651997.0
1663.07	9417303.0
1663.32	9183674.0
1663.57	9515987.0
1663.82	9609059.0
1664.07	9399898.0
1664.32	9592274.0
1664.57	9088739.0
1664.82	9265301.0
1665.07	9429119.0
1665.32	9093420.0
1665.57	9573699.0
1665.82	9562798.0
1666.07	9432186.0
1666.32	9500660.0
1666.57	9115395.0
1666.82	9545016.0
1667.07	9456688.0
1667.32	9136341.0
1667.57	9539733.0
1667.82	9388277.0
1668.07	8711581.0
1668.32	9514745.0
1668.57	9388935.0
1668.82	9526473.0
1669.07	9529460.0
1669.32	9452213.0
1669.57	9489520.0
1669.82	9489417.0
1670.07	9488834.0
1670.32	9462765.0
1670.57	9433779.0
1670.82	9211826.0
1671.07	9401287.0
1671.32	9389721.0
1671.57	9399954.0
1671.82	8220933.5
1672.07	9205627.0
1672.32	9348157.0
1672.57	9182800.0
1672.82	9357872.0
1673.07	9378166.0
1673.32	9397887.0
1673.57	9371563.0
1673.82	9243982.0
1674.07	9330585.0
1674.32	9309863.0
1674.57	9328521.0
1674.82	9157072.0
1675.07	7828907.5
1675.32	9052207.0
1675.57	9287582.0
1675.82	9211840.0
1676.07	9148740.0
1676.32	8635550.0
1676.57	9227284.0
1676.82	9220320.0
1677.07	9204148.0
1677.32	9180606.0
1677.57	9099694.0
1677.82	9031586.0
1678.07	9058217.0
1678.32	9008755.0
1678.57	8961805.0
1678.82	8982681.0
1679.07	8927664.0
1679.32	8701641.0
1679.57	8777979.0
1679.82	8717308.0
1680.07	8560309.0
1680.32	8444692.0
1680.57	8325783.5
1680.82	8323896.5
1681.07	8485630.0
1681.32	8610845.0
1681.57	8600119.0
1681.82	8407408.0
1682.07	8762498.0
1682.32	8427704.0
1682.57	8923414.0
1682.82	8684535.0
1683.07	8990808.0
1683.32	8914918.0
1683.57	8995359.0
1683.82	9004133.0
1684.07	9050677.0
1684.32	8962509.0
1684.57	9038695.0
1684.82	9091648.0
1685.07	9079219.0
1685.32	9072680.0
1685.57	8964451.0
1685.82	8629942.0
1686.07	9077919.0
1686.32	9054200.0
1686.57	9015619.0
1686.82	8896271.0
1687.07	8972086.0
1687.32	9004947.0
1687.57	8990093.0
1687.82	9033313.0
1688.07	9014884.0
1688.32	9075044.0
1688.57	9066767.0
1688.82	9011742.0
1689.07	8014865.5
1689.32	8977780.0
1689.57	9031079.0
1689.82	9082020.0
1690.07	9026321.0
1690.32	8422592.0
1690.57	9013464.0
1690.82	9084010.0
1691.07	9070290.0
1691.32	9068996.0
1691.57	9052700.0
1691.82	9073939.0
1692.07	9074241.0
1692.32	9057293.0
1692.57	9045178.0
1692.82	8854720.0
1693.07	9042345.0
1693.32	9010341.0
1693.57	9035717.0
1693.82	9044790.0
1694.07	9044956.0
1694.32	9042252.0
1694.57	9006233.0
1694.82	8990507.0
1695.07	9008779.0
1695.32	8974768.0
1695.57	8987198.0
1695.82	8843910.0
1696.07	8992593.0
1696.32	8991648.0
1696.57	8847114.0
1696.82	8949924.0
1697.07	8543507.0
1697.32	8938922.0
1697.57	8852733.0
1697.82	8941236.0
1698.07	8844124.0
1698.32	8831314.0
1698.57	8727220.0
1698.82	8825892.0
1699.07	8908243.0
1699.32	8695514.0
1699.57	8376738.0
1699.82	8897553.0
1700.07	8603144.0
1700.32	8894850.0
1700.57	8256633.0
1700.82	8577421.0
1701.07	8421648.0
1701.32	8796224.0
1701.57	8873963.0
1701.82	8806269.0
1702.07	8624979.0
1702.32	8859180.0
1702.57	8798312.0
1702.82	8789875.0
1703.07	8844819.0
1703.32	8697708.0
1703.57	8836959.0
1703.82	8834106.0
1704.07	8848896.0
1704.32	8817300.0
1704.57	8851464.0
1704.82	8703258.0
1705.07	8834389.0
1705.32	8799321.0
1705.57	8829304.0
1705.82	8730673.0
1706.07	8831398.0
1706.32	8734852.0
1706.57	8384949.0
1706.82	8781389.0
1707.07	8730083.0
1707.32	8690733.0
1707.57	8752311.0
1707.82	8706764.0
1708.07	8772075.0
1708.32	8766324.0
1708.57	8445727.0
1708.82	8730595.0
1709.07	8395312.0
1709.32	8651468.0
1709.57	8738037.0
1709.82	8667860.0
1710.07	8718180.0
1710.32	8657071.0
1710.57	8435644.0
1710.82	6393470.5
1711.07	8092648.0
1711.32	8545852.0
1711.57	8686810.0
1711.82	8581547.0
1712.07	8572754.0
1712.32	8716072.0
1712.57	8618039.0
1712.82	8706950.0
1713.07	8579257.0
1713.32	8633291.0
1713.57	8689733.0
1713.82	8565801.0
1714.07	8672775.0
1714.32	8692059.0
1714.57	8688057.0
1714.82	8640874.0
1715.07	8581872.0
1715.32	8615927.0
1715.57	8641008.0
1715.82	8634177.0
1716.07	8075693.0
1716.32	8636553.0
1716.57	8627860.0
1716.82	8577893.0
1717.07	8609963.0
1717.32	8613160.0
1717.57	8562548.0
1717.82	8581274.0
1718.07	8590288.0
1718.32	8526444.0
1718.57	8604142.0
1718.82	8507748.0
1719.07	8581848.0
1719.32	8476425.0
1719.57	8511477.0
1719.82	8518734.0
1720.07	8526140.0
1720.32	8281675.0
1720.57	8278893.5
1720.82	8508964.0
1721.07	8558278.0
1721.32	8533357.0
1721.57	8430825.0
1721.82	8429609.0
1722.07	8495215.0
1722.32	8466939.0
1722.57	7433918.5
1722.82	8442052.0
1723.07	8313646.0
1723.32	8110156.0
1723.57	8287783.0
1723.82	8448534.0
1724.07	8309332.5
1724.32	8428404.0
1724.57	8413661.0
1724.82	8448131.0
1725.07	8374685.5
1725.32	8213635.0
1725.57	8433033.0
1725.82	8407340.0
1726.07	8448545.0
1726.32	8415151.0
1726.57	8379837.0
1726.82	8294633.0
1727.07	8388844.0
1727.32	8253047.0
1727.57	7884007.5
1727.82	8231012.5
1728.07	8311497.0
1728.32	8241916.5
1728.57	8338349.5
1728.82	8248277.0
1729.07	8355709.5
1729.32	8293345.0
1729.57	8324238.5
1729.82	8331001.0
1730.07	8193157.0
1730.32	7903130.5
1730.57	8220333.0
1730.82	8254550.0
1731.07	8245532.0
1731.32	8234515.5
1731.57	8236245.5
1731.82	8227870.5
1732.07	8192798.0
1732.32	7744792.0
1732.57	7716488.0
1732.82	7057527.0
1733.07	7950990.0
1733.32	8042235.0
1733.57	8005827.0
1733.82	7016484.5
1734.07	7927209.5
1734.32	7939816.5
1734.57	7892128.5
1734.82	7829887.0
1735.07	7725344.5
1735.32	7669036.5
1735.57	7533597.0
1735.82	7374999.0
1736.07	7142969.5
1736.32	7137700.0
1736.57	7356053.0
1736.82	7539344.0
1737.07	7650504.0
1737.32	7674121.0
1737.57	7751683.5
1737.82	7853554.5
1738.07	7840242.0
1738.32	7918766.5
1738.57	7844919.5
1738.82	7961133.0
1739.07	7909631.5
1739.32	7786445.5
1739.57	8018448.0
1739.82	8049377.5
1740.07	7923897.5
1740.32	8011591.5
1740.57	7924859.0
1740.82	7167363.5
1741.07	7960751.5
1741.32	8085365.0
1741.57	8032464.0
1741.82	7963562.5
1742.07	8029205.0
1742.32	8020439.0
1742.57	8045851.5
1742.82	7794804.0
1743.07	8084973.5
1743.32	8047914.5
1743.57	8046266.5
1743.82	8112773.0
1744.07	8115368.0
1744.32	8116028.0
1744.57	8092482.0
1744.82	7501380.5
1745.07	7965122.5
1745.32	8019977.0
1745.57	7578730.5
1745.82	7985552.0
1746.07	8056366.5
1746.32	8090859.0
1746.57	7449162.0
1746.82	7524363.5
1747.07	7912299.5
1747.32	8082886.5
1747.57	7844967.5
1747.82	8062123.0
1748.07	8066160.5
1748.32	8055136.5
1748.57	8041729.0
1748.82	8067700.0
1749.07	8051331.0
1749.32	8015767.0
1749.57	7990329.5
1749.82	8045510.0
1750.07	7817653.0
1750.32	7985614.0
1750.57	7358744.5
1750.82	7956812.0
1751.07	7990600.0
1751.32	7946386.5
1751.57	8021197.0
1751.82	7991532.5
1752.07	7852377.5
1752.32	7958783.5
1752.57	7868461.0
1752.82	8010807.5
1753.07	8000921.5
1753.32	7989057.0
1753.57	7973343.5
1753.82	7920913.5
1754.07	7956553.5
1754.32	7976390.5
1754.57	7647122.5
1754.82	7928558.0
1755.07	7862921.0
1755.32	7816822.5
1755.57	7835699.5
1755.82	7925910.0
1756.07	7933855.5
1756.32	7892808.5
1756.57	7768376.5
1756.82	7955529.5
1757.07	7911962.5
1757.32	7944155.5
1757.57	7894918.0
1757.82	7926964.0
1758.07	7854741.0
1758.32	7888726.5
1758.57	7737196.5
1758.82	7906654.5
1759.07	7921341.5
1759.32	7891684.0
1759.57	7907374.5
1759.82	7771311.0
1760.07	7847557.5
1760.32	7807996.0
1760.57	7442181.5
1760.82	7761744.5
1761.07	7770474.0
1761.32	7807661.0
1761.57	7392328.0
1761.82	7421125.0
1762.07	7829647.0
1762.32	7464945.0
1762.57	7823730.0
1762.82	7858410.5
1763.07	7858929.0
1763.32	7804690.5
1763.57	7765598.0
1763.82	7209531.5
1764.07	7467057.0
1764.32	7563927.0
1764.57	7745966.0
1764.82	7832931.5
1765.07	7836119.5
1765.32	7806514.0
1765.57	7707549.0
1765.82	7722433.0
1766.07	7794649.0
1766.32	7439981.5
1766.57	7799996.0
1766.82	7799157.5
1767.07	7664513.5
1767.32	7501466.0
1767.57	7598552.5
1767.82	7559112.0
1768.07	7189788.0
1768.32	7652125.0
1768.57	7686801.5
1768.82	7730301.0
1769.07	7687326.0
1769.32	7715992.0
1769.57	7522605.5
1769.82	7690967.5
1770.07	7738419.0
1770.32	7636228.5
1770.57	7637205.5
1770.82	7353244.0
1771.07	7655532.5
1771.32	7669880.0
1771.57	7675796.5
1771.82	7512549.0
1772.07	6967587.0
1772.32	7612662.5
1772.57	7695690.5
1772.82	7528944.0
1773.07	7653391.0
1773.32	7625311.0
1773.57	7524518.0
1773.82	7655328.5
1774.07	7588899.0
1774.32	7574321.5
1774.57	7616444.5
1774.82	7575007.5
1775.07	7561736.0
1775.32	7413577.0
1775.57	7618910.5
1775.82	7541501.0
1776.07	7403955.5
1776.32	7392903.0
1776.57	7618529.0
1776.82	7290446.0
1777.07	7126145.5
1777.32	7558010.0
1777.57	7541628.5
1777.82	7588506.0
1778.07	7562059.0
1778.32	7422707.5
1778.57	7529088.5
1778.82	7504453.0
1779.07	7360997.5
1779.32	7527008.5
1779.57	7574056.5
1779.82	7546931.0
1780.07	7468543.5
1780.32	7536386.5
1780.57	7568254.0
1780.82	7556151.0
1781.07	7507478.0
1781.32	7215900.5
1781.57	7522197.0
1781.82	7503686.0
1782.07	7528043.5
1782.32	7337973.0
1782.57	7393689.5
1782.82	7502731.0
1783.07	7515112.0
1783.32	7483199.0
1783.57	7343494.0
1783.82	7360208.0
1784.07	7424743.0
1784.32	7358929.0
1784.57	7207472.5
1784.82	7435307.5
1785.07	7480988.0
1785.32	7237425.0
1785.57	7404344.5
1785.82	7375000.5
1786.07	7326053.0
1786.32	7387379.5
1786.57	7447146.0
1786.82	7497848.5
1787.07	7351045.5
1787.32	7377241.0
1787.57	7432484.5
1787.82	7461884.5
1788.07	7436330.5
1788.32	7451988.5
1788.57	7463085.5
1788.82	7446348.5
1789.07	7395370.5
1789.32	7412123.0
1789.57	7450058.5
1789.82	7423029.5
1790.07	7439223.5
1790.32	7408057.0
1790.57	7424171.0
1790.82	7362520.5
1791.07	7355663.0
1791.32	7418273.5
1791.57	7355082.0
1791.82	7315404.5
1792.07	7404369.0
1792.32	7321680.0
1792.57	7351572.5
1792.82	7333865.0
1793.07	6939454.0
1793.32	7249742.0
1793.57	7254219.0
1793.82	6947600.5
1794.07	7225477.5
1794.32	7383113.5
1794.57	7370582.5
1794.82	7357140.5
1795.07	7325274.5
1795.32	7359400.5
1795.57	7290507.5
1795.82	7335981.5
1796.07	7342654.0
1796.32	7326052.0
1796.57	7185492.5
1796.82	7283476.0
1797.07	7231788.0
1797.32	7310710.0
1797.57	7311589.5
1797.82	7304769.5
1798.07	7200693.5
1798.32	7190874.5
1798.57	7266454.0
1798.82	7283381.5
1799.07	7282902.0
1799.32	7218058.0
1799.57	7238498.5
1799.82	7258881.0
1800.07	7176382.5
1800.32	7174121.0
1800.57	7102667.5
1800.82	7267744.5
1801.07	7249038.5
1801.32	7235318.0
1801.57	7152373.0
1801.82	7234888.0
1802.07	6987411.0
1802.32	7135823.0
1802.57	7191670.0
1802.82	7051841.0
1803.07	6862859.0
1803.32	7191041.0
1803.57	7170138.5
1803.82	7165953.5
1804.07	7227655.5
1804.32	7138173.5
1804.57	7213753.5
1804.82	7198424.5
1805.07	7013069.0
1805.32	7029273.5
1805.57	7178378.5
1805.82	7196925.0
1806.07	7057206.0
1806.32	7063638.5
1806.57	7080749.5
1806.82	7085913.5
1807.07	7158393.0
1807.32	7100245.5
1807.57	7134248.5
1807.82	7113179.5
1808.07	6765908.0
1808.32	7116313.5
1808.57	7134957.5
1808.82	7077638.5
1809.07	6952218.5
1809.32	7057591.5
1809.57	6978045.5
1809.82	6809337.0
1810.07	7026597.0
1810.32	6990288.0
1810.57	6959050.0
1810.82	6921037.0
1811.07	6960994.5
1811.32	7013369.5
1811.57	7034411.5
1811.82	6878611.0
1812.07	7018471.5
1812.32	6992548.0
1812.57	6999972.5
1812.82	6955006.0
1813.07	6962779.0
1813.32	6972795.0
1813.57	6953383.0
1813.82	6831769.0
1814.07	6843116.5
1814.32	6831259.0
1814.57	6865210.5
1814.82	6820059.0
1815.07	6804846.5
1815.32	6541252.5
1815.57	6386342.0
1815.82	6568335.0
1816.07	6597870.5
1816.32	6532027.0
1816.57	6440977.0
1816.82	6287239.5
1817.07	6063162.0
1817.32	5784465.0
1817.57	5914786.0
1817.82	6172710.5
1818.07	6285269.5
1818.32	6469110.0
1818.57	6549653.0
1818.82	6588054.5
1819.07	6576280.5
1819.32	6702761.0
1819.57	6714932.0
1819.82	6747550.5
1820.07	6749469.0
1820.32	6791950.0
1820.57	6808603.5
1820.82	6829256.0
1821.07	6838804.5
1821.32	6839177.5
1821.57	6825570.0
1821.82	6852281.5
1822.07	6344217.0
1822.32	6520673.0
1822.57	6801690.5
1822.82	6808519.0
1823.07	6757354.5
1823.32	6881656.5
1823.57	6899216.5
1823.82	6840439.5
1824.07	6906745.5
1824.32	6779958.0
1824.57	6907679.0
1824.82	6815087.5
1825.07	6838253.5
1825.32	6907132.5
1825.57	6906097.0
1825.82	6858783.5
1826.07	6903297.5
1826.32	6869585.0
1826.57	6895502.5
1826.82	6892254.5
1827.07	6854966.5
1827.32	6827730.0
1827.57	6808482.0
1827.82	6890542.0
1828.07	6862256.5
1828.32	6540490.5
1828.57	6638158.0
1828.82	6864506.0
1829.07	6859482.0
1829.32	6861470.0
1829.57	6778882.0
1829.82	6794756.5
1830.07	6764827.0
1830.32	6812354.5
1830.57	6837565.5
1830.82	6850991.0
1831.07	6846870.5
1831.32	6846859.5
1831.57	6720830.0
1831.82	6818051.0
1832.07	6356684.5
1832.32	6816973.0
1832.57	6819349.5
1832.82	6845722.5
1833.07	6816434.5
1833.32	6837398.0
1833.57	6824622.5
1833.82	6739069.5
1834.07	6696452.5
1834.32	6794511.0
1834.57	6762246.5
1834.82	6791030.0
1835.07	6727318.5
1835.32	6697739.5
1835.57	6734783.5
1835.82	6719468.0
1836.07	6665513.5
1836.32	6779087.5
1836.57	6593089.0
1836.82	6686309.5
1837.07	6740050.0
1837.32	6260598.5
1837.57	6373714.0
1837.82	6689294.5
1838.07	6710194.5
1838.32	6766925.5
1838.57	6750670.0
1838.82	6671953.5
1839.07	6744426.0
1839.32	6598464.0
1839.57	6560604.5
1839.82	6603590.5
1840.07	6733389.0
1840.32	6735991.0
1840.57	6615115.0
1840.82	6667514.0
1841.07	6702253.5
1841.32	6422776.5
1841.57	6451124.5
1841.82	6493824.5
1842.07	6626757.0
1842.32	5943110.0
1842.57	6680467.5
1842.82	6549383.5
1843.07	6536029.0
1843.32	6588005.0
1843.57	6676412.0
1843.82	6621941.0
1844.07	6624287.5
1844.32	6556315.0
1844.57	6494477.5
1844.82	6545821.5
1845.07	6676366.0
1845.32	6659621.0
1845.57	6665027.0
1845.82	6640778.0
1846.07	6644508.0
1846.32	6512664.0
1846.57	5482366.5
1846.82	6569627.0
1847.07	6462868.5
1847.32	6424150.0
1847.57	6636751.0
1847.82	6553872.0
1848.07	6629392.0
1848.32	6623743.0
1848.57	6614381.5
1848.82	6602025.5
1849.07	6546948.5
1849.32	6596495.5
1849.57	6491025.5
1849.82	6603014.5
1850.07	6598553.0
1850.32	6590155.5
1850.57	6603507.5
1850.82	6556379.5
1851.07	6547228.5
1851.32	6582499.0
1851.57	6541224.0
1851.82	6453009.5
1852.07	6395207.0
1852.32	6466790.5
1852.57	6189319.0
1852.82	6508572.0
1853.07	6511315.5
1853.32	6556354.0
1853.57	6539573.0
1853.82	6533516.0
1854.07	6550191.5
1854.32	6509953.5
1854.57	6524997.5
1854.82	6328337.0
1855.07	6523102.0
1855.32	5855144.0
1855.57	6188146.0
1855.82	6458544.5
1856.07	6509240.5
1856.32	6521295.0
1856.57	6518622.5
1856.82	6512804.5
1857.07	6517539.0
1857.32	6506067.5
1857.57	6259180.0
1857.82	6483796.0
1858.07	6312472.5
1858.32	6219538.0
1858.57	6404060.0
1858.82	6496367.5
1859.07	6496785.5
1859.32	6465370.0
1859.57	6347061.0
1859.82	6470379.0
1860.07	6450254.5
1860.32	6458569.0
1860.57	6449474.0
1860.82	6381980.5
1861.07	6311843.0
1861.32	6425178.5
1861.57	6402527.5
1861.82	6435784.5
1862.07	6349106.5
1862.32	6313035.0
1862.57	6320084.0
1862.82	6331968.5
1863.07	6405744.5
1863.32	6396251.0
1863.57	6413499.5
1863.82	6232093.5
1864.07	6393799.0
1864.32	6419666.0
1864.57	6414193.5
1864.82	6366481.0
1865.07	6381826.5
1865.32	6182504.0
1865.57	6345156.0
1865.82	6060653.5
1866.07	6333565.5
1866.32	6187450.0
1866.57	6350602.5
1866.82	6356100.0
1867.07	6351591.5
1867.32	6332119.0
1867.57	6177513.5
1867.82	6328409.5
1868.07	6230052.5
1868.32	6287284.5
1868.57	6321211.5
1868.82	6294552.5
1869.07	6302515.5
1869.32	6260435.5
1869.57	6201309.0
1869.82	6285598.5
1870.07	6249796.5
1870.32	6225986.5
1870.57	6255932.0
1870.82	6230888.5
1871.07	6205866.5
1871.32	6040381.0
1871.57	6189083.0
1871.82	6171892.0
1872.07	6055715.0
1872.32	5475278.0
1872.57	6046332.0
1872.82	6058584.0
1873.07	6005002.5
1873.32	5968893.0
1873.57	5818960.5
1873.82	5834985.5
1874.07	5742483.0
1874.32	5577002.5
1874.57	5420964.5
1874.82	5099751.5
1875.07	4045572.0
1875.32	4963483.0
1875.57	5383246.5
1875.82	5583231.0
1876.07	5667715.5
1876.32	5804974.5
1876.57	5870948.5
1876.82	5925898.5
1877.07	5932646.0
1877.32	5519950.5
1877.57	5996669.0
1877.82	6044669.5
1878.07	6073460.0
1878.32	6055132.5
1878.57	6087489.0
1878.82	6076944.5
1879.07	6017220.0
1879.32	6099169.5
1879.57	6140058.5
1879.82	6125976.5
1880.07	6142067.5
1880.32	6142772.0
1880.57	6161589.0
1880.82	6149894.0
1881.07	6166372.0
1881.32	6157048.0
1881.57	6155176.5
1881.82	6039120.5
1882.07	5989512.0
1882.32	6159164.0
1882.57	6178381.0
1882.82	6143878.5
1883.07	6164049.5
1883.32	6146489.0
1883.57	6160769.5
1883.82	6136046.0
1884.07	6156981.0
1884.32	5982864.5
1884.57	5928940.5
1884.82	6105605.5
1885.07	5981615.0
1885.32	6132582.0
1885.57	5551135.0
1885.82	6089961.5
1886.07	6030888.5
1886.32	6085706.5
1886.57	6144411.5
1886.82	6099106.0
1887.07	6120635.5
1887.32	6009488.5
1887.57	5988907.5
1887.82	5931722.0
1888.07	6112982.5
1888.32	5945801.5
1888.57	5740307.5
1888.82	6017189.5
1889.07	6084409.5
1889.32	5999175.5
1889.57	6015656.0
1889.82	5303455.5
1890.07	5988090.0
1890.32	6106119.0
1890.57	5797472.0
1890.82	6073632.5
1891.07	6073086.5
1891.32	5850750.0
1891.57	5894703.0
1891.82	6035088.5
1892.07	5644597.5
1892.32	5947591.0
1892.57	5570940.0
1892.82	5680793.0
1893.07	5974308.0
1893.32	6057871.5
1893.57	5973088.0
1893.82	6032804.5
1894.07	5994624.5
1894.32	5674529.0
1894.57	5906330.0
1894.82	6007024.0
1895.07	5904755.5
1895.32	6037260.0
1895.57	5893896.0
1895.82	5666408.0
1896.07	5990671.5
1896.32	5854448.0
1896.57	5896161.0
1896.82	6014786.5
1897.07	5797185.0
1897.32	5926505.0
1897.57	6017121.0
1897.82	5980939.0
1898.07	6014067.0
1898.32	6018127.5
1898.57	5778123.0
1898.82	5695391.5
1899.07	6016236.0
1899.32	6023103.5
1899.57	5987958.0
1899.82	6010660.0
1900.07	5975186.0
1900.32	5878593.0
1900.57	5902695.5
1900.82	5976278.0
1901.07	5960608.0
1901.32	5970772.5
1901.57	5984557.0
1901.82	5960606.5
1902.07	5947442.5
1902.32	5972400.0
1902.57	5977159.5
1902.82	5937914.5
1903.07	5499164.5
1903.32	5958755.0
1903.57	5942876.5
1903.82	5961886.5
1904.07	5941498.5
1904.32	5858850.0
1904.57	5689768.0
1904.82	5936491.5
1905.07	5878572.5
1905.32	5939371.5
1905.57	5945270.0
1905.82	5876613.5
1906.07	5898656.5
1906.32	5937491.5
1906.57	5930033.0
1906.82	5935515.5
1907.07	5901913.0
1907.32	5912040.0
1907.57	5906370.5
1907.82	5809404.0
1908.07	5773278.5
1908.32	5773215.0
1908.57	5871648.0
1908.82	5911858.5
1909.07	5906561.0
1909.32	5904615.5
1909.57	5864067.5
1909.82	5906307.5
1910.07	5880946.0
1910.32	5791726.5
1910.57	5874559.0
1910.82	5885663.0
1911.07	5839931.0
1911.32	5410396.0
1911.57	5846943.5
1911.82	5879605.0
1912.07	5631466.5
1912.32	5766541.5
1912.57	5864563.0
1912.82	5839681.0
1913.07	5828382.0
1913.32	5838744.5
1913.57	5854930.0
1913.82	5825140.5
1914.07	5663461.5
1914.32	5823975.5
1914.57	5845993.0
1914.82	5796479.0
1915.07	5840227.0
1915.32	5744887.0
1915.57	5770310.0
1915.82	5735598.0
1916.07	5760854.5
1916.32	5809124.0
1916.57	5815436.5
1916.82	5804501.0
1917.07	5775389.0
1917.32	5754060.5
1917.57	5758921.5
1917.82	5798294.5
1918.07	5791559.0
1918.32	5793246.0
1918.57	5784244.5
1918.82	5783105.5
1919.07	5755585.0
1919.32	5117269.5
1919.57	5477459.5
1919.82	5754763.0
1920.07	5743057.0
1920.32	5696647.5
1920.57	5777260.0
1920.82	5691760.0
1921.07	5768878.5
1921.32	5529365.0
1921.57	5660702.0
1921.82	5735452.0
1922.07	5713898.0
1922.32	5758319.0
1922.57	5757487.0
1922.82	5717777.0
1923.07	5744913.5
1923.32	5722986.5
1923.57	5735575.5
1923.82	5697268.5
1924.07	5727105.0
1924.32	5739742.5
1924.57	5617433.0
1924.82	5720183.5
1925.07	5664378.0
1925.32	5704557.0
1925.57	5672918.5
1925.82	5481121.5
1926.07	5638593.0
1926.32	5716756.5
1926.57	5596183.5
1926.82	5492755.0
1927.07	5699209.0
1927.32	5680378.0
1927.57	5674066.0
1927.82	5653256.0
1928.07	5635977.0
1928.32	5257763.0
1928.57	5608721.0
1928.82	5685458.5
1929.07	5676486.5
1929.32	5673336.5
1929.57	5676485.0
1929.82	5634014.0
1930.07	5655190.0
1930.32	5579887.5
1930.57	5607150.5
1930.82	5151261.5
1931.07	5545124.5
1931.32	5652438.0
1931.57	5631923.0
1931.82	5617592.0
1932.07	5614625.0
1932.32	5645492.5
1932.57	5614338.0
1932.82	5636100.5
1933.07	5630056.5
1933.32	5562179.5
1933.57	5465316.0
1933.82	5597795.5
1934.07	5212929.0
1934.32	5601493.5
1934.57	5572587.0
1934.82	5602656.5
1935.07	5580172.5
1935.32	5583199.0
1935.57	5572611.0
1935.82	5600635.0
1936.07	5592597.0
1936.32	5566953.0
1936.57	5556203.5
1936.82	5571956.5
1937.07	5574062.0
1937.32	5565820.5
1937.57	5551586.5
1937.82	5501485.5
1938.07	5551255.5
1938.32	5538579.5
1938.57	5122670.5
1938.82	5515336.5
1939.07	5514363.5
1939.32	5329440.0
1939.57	5479845.5
1939.82	5483453.0
1940.07	5474929.0
1940.32	5290588.0
1940.57	5459043.5
1940.82	5429158.0
1941.07	5349225.5
1941.32	5405302.5
1941.57	5382394.0
1941.82	5369332.0
1942.07	5344430.0
1942.32	5309706.0
1942.57	5059102.5
1942.82	5244583.5
1943.07	5055013.5
1943.32	4697610.0
1943.57	5069780.0
1943.82	4994137.0
1944.07	4856400.5
1944.32	4612006.0
1944.57	4372427.0
1944.82	4688611.0
1945.07	4869179.5
1945.32	4490695.0
1945.57	5082779.5
1945.82	5139383.0
1946.07	5183617.5
1946.32	5154841.0
1946.57	5255590.5
1946.82	5258724.0
1947.07	5095381.5
1947.32	5320707.5
1947.57	5307620.0
1947.82	5346252.5
1948.07	5323635.5
1948.32	5176965.0
1948.57	5301764.0
1948.82	5385480.0
1949.07	5272362.0
1949.32	4893912.0
1949.57	5387085.0
1949.82	5396659.0
1950.07	5397196.5
1950.32	5394619.5
1950.57	4601693.5
1950.82	4836671.0
1951.07	5353369.0
1951.32	5412647.0
1951.57	5403601.5
1951.82	5417074.5
1952.07	5417897.5
1952.32	5412807.0
1952.57	5422670.5
1952.82	5417579.5
1953.07	5404183.5
1953.32	5252999.0
1953.57	5405110.5
1953.82	5403455.5
1954.07	5154609.5
1954.32	5380355.0
1954.57	5411244.0
1954.82	5387482.0
1955.07	5406966.5
1955.32	5402432.5
1955.57	5392158.5
1955.82	5404845.5
1956.07	5393909.5
1956.32	5386772.0
1956.57	5389566.5
1956.82	5360024.0
1957.07	5389043.0
1957.32	5360158.5
1957.57	5383955.0
1957.82	5358268.0
1958.07	5326507.5
1958.32	5236482.5
1958.57	5349525.5
1958.82	5294581.0
1959.07	5337036.0
1959.32	5253507.0
1959.57	5334637.5
1959.82	5161616.5
1960.07	5329120.0
1960.32	5342870.5
1960.57	5359580.0
1960.82	5350079.5
1961.07	5343715.0
1961.32	5016042.0
1961.57	5272804.5
1961.82	5350960.0
1962.07	5346517.0
1962.32	5269241.5
1962.57	4876452.0
1962.82	5314093.5
1963.07	5222887.5
1963.32	5305737.0
1963.57	5126845.5
1963.82	5251399.5
1964.07	5300296.5
1964.32	5325588.5
1964.57	5327347.0
1964.82	5322687.0
1965.07	5318633.0
1965.32	5322235.5
1965.57	5321133.0
1965.82	5295223.0
1966.07	5307440.5
1966.32	5310948.0
1966.57	5299714.5
1966.82	5296573.0
1967.07	5292028.0
1967.32	5299960.5
1967.57	5253354.0
1967.82	5298738.5
1968.07	5286881.5
1968.32	5282917.5
1968.57	5241390.5
1968.82	5265288.5
1969.07	5276168.0
1969.32	5282646.0
1969.57	5263750.0
1969.82	5273142.0
1970.07	5267827.5
1970.32	5263112.5
1970.57	5266082.0
1970.82	5258894.5
1971.07	5234716.5
1971.32	5243838.5
1971.57	5248972.5
1971.82	5130277.5
1972.07	5065233.0
1972.32	4411284.5
1972.57	5218604.5
1972.82	5228592.5
1973.07	5233028.5
1973.32	4873663.0
1973.57	5169454.0
1973.82	5201288.0
1974.07	5226863.0
1974.32	5213467.0
1974.57	5212468.0
1974.82	5220756.5
1975.07	5188997.0
1975.32	5208708.0
1975.57	5220185.5
1975.82	5214502.5
1976.07	5160986.5
1976.32	5190772.5
1976.57	5211292.0
1976.82	5202861.0
1977.07	5199182.0
1977.32	5197366.5
1977.57	4577832.5
1977.82	4844529.0
1978.07	5167169.5
1978.32	5188589.0
1978.57	5146973.5
1978.82	5177588.0
1979.07	4952487.5
1979.32	5094842.0
1979.57	5169653.0
1979.82	5172646.5
1980.07	5165409.0
1980.32	5169608.5
1980.57	5158741.5
1980.82	5170783.5
1981.07	5167831.5
1981.32	5152086.5
1981.57	5044333.5
1981.82	5150570.0
1982.07	5153170.5
1982.32	5160939.0
1982.57	5150974.5
1982.82	5151731.5
1983.07	5151366.5
1983.32	5136043.5
1983.57	5151729.5
1983.82	5146412.5
1984.07	5140913.0
1984.32	5140905.0
1984.57	4866499.5
1984.82	5095819.0
1985.07	5117793.0
1985.32	4616533.5
1985.57	4907050.0
1985.82	5111582.0
1986.07	5056955.0
1986.32	4680283.5
1986.57	5104409.5
1986.82	5106869.0
1987.07	5095371.5
1987.32	5066390.5
1987.57	5053486.5
1987.82	5111332.5
1988.07	5042092.5
1988.32	5098974.0
1988.57	5100824.0
1988.82	5100233.0
1989.07	5095435.5
1989.32	5078931.5
1989.57	5091164.0
1989.82	5092558.0
1990.07	5083551.0
1990.32	5057145.0
1990.57	5055109.5
1990.82	5054673.0
1991.07	5068692.5
1991.32	5051092.0
1991.57	5048009.0
1991.82	4925195.0
1992.07	5064171.0
1992.32	4999742.0
1992.57	5049716.0
1992.82	4712087.0
1993.07	5044508.0
1993.32	4638328.0
1993.57	5035044.5
1993.82	5045148.5
1994.07	5032989.5
1994.32	5022090.0
1994.57	5033399.0
1994.82	4979635.0
1995.07	5008338.0
1995.32	5027445.0
1995.57	5017336.0
1995.82	5030705.0
1996.07	4818397.5
1996.32	4937095.5
1996.57	4977848.0
1996.82	5010566.5
1997.07	4743787.0
1997.32	4725917.5
1997.57	4946181.5
1997.82	4990155.0
1998.07	4991216.5
1998.32	5006141.5
1998.57	5014671.0
1998.82	5004358.0
1999.07	4995758.0
1999.32	4987409.5
1999.57	4995316.0
1999.82	4994623.5
2000.07	4979702.5
2000.32	4987613.5
2000.57	4990416.0
2000.82	4919441.5
2001.07	4976464.0
2001.32	4974195.0
2001.57	4983820.0
2001.82	4978958.0
2002.07	4942682.5
2002.32	4696311.0
2002.57	4931303.5
2002.82	4953517.5
2003.07	4935641.0
2003.32	4944709.0
2003.57	4782095.5
2003.82	4906579.0
2004.07	4946384.5
2004.32	4926721.5
2004.57	4948132.0
2004.82	4950214.5
2005.07	4641716.5
2005.32	4797286.5
2005.57	4868080.5
2005.82	4936458.5
2006.07	4928730.5
2006.32	4937485.5
2006.57	4925646.0
2006.82	4893605.5
2007.07	4773749.5
2007.32	4930040.5
2007.57	4929385.0
2007.82	4915289.0
2008.07	4862072.0
2008.32	4892400.0
2008.57	4902240.0
2008.82	4898881.0
2009.07	4846379.0
2009.32	4786177.5
2009.57	4868810.0
2009.82	4894004.5
2010.07	4906524.0
2010.32	4896624.5
2010.57	4881160.0
2010.82	4873105.0
2011.07	4882183.5
2011.32	4878419.0
2011.57	4885176.5
2011.82	4884503.0
2012.07	4881764.5
2012.32	4872529.0
2012.57	4830515.5
2012.82	4841552.0
2013.07	4871954.5
2013.32	4865449.5
2013.57	4714049.0
2013.82	4795095.5
2014.07	4850042.0
2014.32	4814349.0
2014.57	4849122.0
2014.82	4843925.5
2015.07	4817962.5
2015.32	4859795.5
2015.57	4847132.5
2015.82	4849498.5
2016.07	4849560.0
2016.32	4839409.5
2016.57	4834065.5
2016.82	4827829.0
2017.07	4822774.5
2017.32	4802506.0
2017.57	4835860.5
2017.82	4828316.0
2018.07	4829989.5
2018.32	4825185.0
2018.57	4806571.0
2018.82	4724493.0
2019.07	4822596.0
2019.32	4799130.5
2019.57	4802571.5
2019.82	4750225.0
2020.07	4805892.0
2020.32	4739386.5
2020.57	4503655.5
2020.82	4567753.0
2021.07	4767010.5
2021.32	4782248.0
2021.57	4786837.0
2021.82	4782115.5
2022.07	4777551.0
2022.32	4765611.5
2022.57	4782614.5
2022.82	4727501.5
2023.07	4633900.0
2023.32	4738801.5
2023.57	4782151.5
2023.82	4752122.5
2024.07	4580445.0
2024.32	4756298.0
2024.57	4766876.0
2024.82	4759695.5
2025.07	4745130.0
2025.32	4768578.0
2025.57	4750605.5
2025.82	4764754.5
2026.07	4764424.0
2026.32	4523866.5
2026.57	4750255.5
2026.82	4656597.5
2027.07	4747535.5
2027.32	4705571.0
2027.57	4709732.5
2027.82	4746494.0
2028.07	4624807.5
2028.32	4707539.5
2028.57	4736183.5
2028.82	4709274.0
2029.07	4685949.0
2029.32	4676526.0
2029.57	4377012.5
2029.82	4689706.0
2030.07	4397783.0
2030.32	4619025.5
2030.57	4711703.5
2030.82	4724350.5
2031.07	4712932.5
2031.32	4710486.0
2031.57	4701046.0
2031.82	4703092.5
2032.07	4701734.5
2032.32	4697264.0
2032.57	4689293.5
2032.82	4661449.0
2033.07	4686200.0
2033.32	4686857.0
2033.57	4688657.5
2033.82	4656372.5
2034.07	4623010.5
2034.32	4344786.0
2034.57	4512552.0
2034.82	4682474.0
2035.07	4561241.0
2035.32	4669480.5
2035.57	4674057.5
2035.82	4682063.5
2036.07	4655825.5
2036.32	4590055.0
2036.57	4652143.0
2036.82	4651503.0
2037.07	4659091.0
2037.32	4573458.0
2037.57	4504163.0
2037.82	4301012.5
2038.07	4591161.5
2038.32	4479460.0
2038.57	4632145.0
2038.82	4638305.0
2039.07	4651202.5
2039.32	4656267.5
2039.57	4624080.0
2039.82	4639769.0
2040.07	4628301.5
2040.32	4502992.5
2040.57	4586913.0
2040.82	4620612.0
2041.07	4448232.0
2041.32	4526438.5
2041.57	4553189.5
2041.82	4608202.5
2042.07	4602941.0
2042.32	4590070.5
2042.57	4610760.5
2042.82	4617479.0
2043.07	4594490.0
2043.32	4623905.0
2043.57	4618660.5
2043.82	4611676.5
2044.07	4607877.5
2044.32	4604502.0
2044.57	4570395.0
2044.82	4584443.5
2045.07	4572272.0
2045.32	4580813.0
2045.57	4590578.0
2045.82	4596377.5
2046.07	4593052.0
2046.32	4586307.0
2046.57	4593687.5
2046.82	4523745.5
2047.07	4587426.5
2047.32	4533255.5
2047.57	4559950.5
2047.82	4574994.5
2048.07	4569656.0
2048.32	4584665.0
2048.57	4571774.5
2048.82	4575667.5
2049.07	4563519.0
2049.32	4564343.0
2049.57	4564425.5
2049.82	4560438.0
2050.07	4561892.5
2050.32	4561995.5
2050.57	4556025.0
2050.82	4549524.0
2051.07	4502917.0
2051.32	4554897.5
2051.57	4527544.0
2051.82	4509857.5
2052.07	4281092.5
2052.32	4435159.5
2052.57	4528191.5
2052.82	4531968.5
2053.07	4514242.0
2053.32	4532160.0
2053.57	4525847.0
2053.82	4399077.5
2054.07	4520278.5
2054.32	4518795.0
2054.57	4515906.5
2054.82	4525373.5
2055.07	4521366.0
2055.32	4479010.0
2055.57	4517339.0
2055.82	4503455.5
2056.07	4514468.5
2056.32	4503708.5
2056.57	4495589.0
2056.82	4467208.5
2057.07	4503867.5
2057.32	4495018.5
2057.57	4494884.5
2057.82	4497267.0
2058.07	4498881.0
2058.32	4464252.5
2058.57	4294234.0
2058.82	4481252.0
2059.07	4492391.5
2059.32	4442552.0
2059.57	4448464.5
2059.82	4368730.0
2060.07	4365453.0
2060.32	4007107.5
2060.57	4440739.5
2060.82	4467098.5
2061.07	4461365.0
2061.32	4471048.0
2061.57	4392529.0
2061.82	4460868.0
2062.07	4456315.0
2062.32	4456123.5
2062.57	4446193.5
2062.82	4344918.5
2063.07	3588124.8
2063.32	3966272.0
2063.57	4414502.5
2063.82	4444308.0
2064.07	4442853.0
2064.32	4404064.5
2064.57	4432467.0
2064.82	4433225.5
2065.07	4430374.5
2065.32	4440192.0
2065.57	4440300.5
2065.82	4424140.0
2066.07	4421774.5
2066.32	4422732.5
2066.57	4342279.0
2066.82	4336920.5
2067.07	4224269.5
2067.32	4237208.5
2067.57	4334363.5
2067.82	4345552.5
2068.07	4379422.5
2068.32	4412220.0
2068.57	4414304.0
2068.82	4391598.0
2069.07	4393048.5
2069.32	4356678.5
2069.57	4389148.0
2069.82	3918616.8
2070.07	4356150.5
2070.32	4372302.0
2070.57	4378498.0
2070.82	4289671.0
2071.07	4376320.5
2071.32	4342167.5
2071.57	4268006.5
2071.82	4318797.5
2072.07	4374760.0
2072.32	4348088.0
2072.57	4384988.0
2072.82	4386786.5
2073.07	4345032.0
2073.32	4330592.5
2073.57	4276153.0
2073.82	4339743.5
2074.07	4360366.5
2074.32	4354750.5
2074.57	4360956.5
2074.82	4350344.5
2075.07	4316230.0
2075.32	4363892.5
2075.57	4287804.5
2075.82	4287490.0
2076.07	4340422.0
2076.32	4197116.0
2076.57	4283172.0
2076.82	4134465.5
2077.07	4137710.5
2077.32	4299790.5
2077.57	4302790.5
2077.82	4330781.5
2078.07	4336384.0
2078.32	4332220.0
2078.57	4334993.0
2078.82	4327374.5
2079.07	4332282.5
2079.32	4320181.0
2079.57	4318871.5
2079.82	4283756.0
2080.07	4235009.5
2080.32	4239895.0
2080.57	4316661.5
2080.82	4321334.0
2081.07	4307180.0
2081.32	4290690.5
2081.57	4314761.5
2081.82	4288853.5
2082.07	4266830.5
2082.32	4275672.5
2082.57	4286821.5
2082.82	4104360.5
2083.07	4269241.0
2083.32	4064520.8
2083.57	4259796.0
2083.82	4273656.0
2084.07	4033088.5
2084.32	4244046.0
2084.57	4225658.5
2084.82	4279334.0
2085.07	4247910.5
2085.32	4287472.0
2085.57	4263558.5
2085.82	4276827.5
2086.07	4240306.5
2086.32	4279324.5
2086.57	4255748.0
2086.82	4221540.0
2087.07	4250687.5
2087.32	4266274.0
2087.57	4235025.5
2087.82	4192854.0
2088.07	4243730.0
2088.32	4236837.5
2088.57	4237589.5
2088.82	4263510.0
2089.07	4151294.8
2089.32	4205319.5
2089.57	4246174.5
2089.82	4253319.5
2090.07	4242732.0
2090.32	4245843.5
2090.57	4222324.0
2090.82	4237583.5
2091.07	4241665.5
2091.32	4226583.0
2091.57	4021658.5
2091.82	3790602.8
2092.07	4224154.5
2092.32	4235974.5
2092.57	4124587.2
2092.82	4226674.5
2093.07	4225555.5
2093.32	4192732.8
2093.57	4227596.5
2093.82	4188759.2
2094.07	4226649.5
2094.32	4221809.0
2094.57	4213291.5
2094.82	4187662.5
2095.07	4201232.5
2095.32	4215144.5
2095.57	4178254.5
2095.82	4192364.5
2096.07	4196275.5
2096.32	4077979.2
2096.57	4203921.5
2096.82	4206341.5
2097.07	4197041.5
2097.32	4083544.0
2097.57	4200211.0
2097.82	4193841.2
2098.07	4177225.8
2098.32	4171418.0
2098.57	4112133.8
2098.82	4146994.5
2099.07	4102439.8
2099.32	4172775.2
2099.57	4178264.8
2099.82	4181602.8
2100.07	4182702.0
2100.32	4173669.2
2100.57	4044150.5
2100.82	4166321.0
2101.07	4138759.5
2101.32	4133407.2
2101.57	4157079.2
2101.82	4111103.2
2102.07	4160682.2
2102.32	3970196.2
2102.57	4150490.2
2102.82	4160472.2
2103.07	4152302.5
2103.32	4159604.2
2103.57	4159245.2
2103.82	4154686.0
2104.07	4150883.0
2104.32	4145955.2
2104.57	4143373.2
2104.82	4144887.8
2105.07	4144153.8
2105.32	4139071.0
2105.57	4125649.0
2105.82	4104700.0
2106.07	4053677.8
2106.32	4121994.0
2106.57	4104117.8
2106.82	4091193.8
2107.07	4090883.2
2107.32	4033461.0
2107.57	4087450.5
2107.82	4113605.2
2108.07	4106453.0
2108.32	4111115.0
2108.57	4084684.2
2108.82	4109686.5
2109.07	4108501.5
2109.32	3777075.2
2109.57	4057919.2
2109.82	4107778.8
2110.07	4110027.5
2110.32	4099422.5
2110.57	4041451.0
2110.82	4103122.0
2111.07	4087392.0
2111.32	4060902.5
2111.57	4095931.2
2111.82	4089266.0
2112.07	4092606.5
2112.32	4036062.2
2112.57	4060609.8
2112.82	4070888.2
2113.07	4081377.5
2113.32	4078590.0
2113.57	4064601.8
2113.82	3959925.0
2114.07	4035873.5
2114.32	4076763.5
2114.57	4075038.8
2114.82	4057085.0
2115.07	4065089.0
2115.32	4064022.8
2115.57	3974919.2
2115.82	4057371.0
2116.07	4046837.5
2116.32	3617136.2
2116.57	4007129.2
2116.82	4040756.8
2117.07	4047230.0
2117.32	4033304.2
2117.57	4004814.5
2117.82	4026214.2
2118.07	4044249.5
2118.32	4033681.0
2118.57	3936379.2
2118.82	3828713.8
2119.07	3799970.8
2119.32	3916022.0
2119.57	3974305.5
2119.82	3959398.5
2120.07	4018871.5
2120.32	4026400.0
2120.57	4031672.8
2120.82	4009483.5
2121.07	3892231.5
2121.32	3942858.5
2121.57	3991776.5
2121.82	3975800.0
2122.07	4002608.8
2122.32	3944169.5
2122.57	3895084.8
2122.82	3988310.0
2123.07	3799009.2
2123.32	3776675.8
2123.57	3952632.0
2123.82	3920282.8
2124.07	3995130.8
2124.32	3985971.8
2124.57	3986286.2
2124.82	3997756.2
2125.07	3999221.8
2125.32	3984728.5
2125.57	3995107.2
2125.82	3905189.2
2126.07	3734954.5
2126.32	3984438.0
2126.57	3983550.5
2126.82	3983345.5
2127.07	3981889.5
2127.32	3981952.5
2127.57	3881764.8
2127.82	3891838.2
2128.07	3973997.5
2128.32	3971622.0
2128.57	3972013.8
2128.82	3953051.2
2129.07	3968450.8
2129.32	3965251.5
2129.57	3836759.0
2129.82	3953992.0
2130.07	3968422.8
2130.32	3959604.8
2130.57	3950003.2
2130.82	3953615.2
2131.07	3965488.5
2131.32	3959270.8
2131.57	3950053.2
2131.82	3944620.5
2132.07	3864757.5
2132.32	3944942.8
2132.57	3945914.8
2132.82	3950908.8
2133.07	3943964.8
2133.32	3938773.5
2133.57	3913223.0
2133.82	3933825.0
2134.07	3928080.5
2134.32	3931763.0
2134.57	3934674.2
2134.82	3932096.0
2135.07	3924089.8
2135.32	3552411.5
2135.57	3823976.8
2135.82	3927715.5
2136.07	3929263.5
2136.32	3920171.8
2136.57	3919108.0
2136.82	3907674.5
2137.07	3918482.5
2137.32	3908137.8
2137.57	3910660.2
2137.82	3913353.5
2138.07	3901033.0
2138.32	3906348.0
2138.57	3895860.5
2138.82	3821053.8
2139.07	3907416.2
2139.32	3895472.8
2139.57	3893546.2
2139.82	3897733.0
2140.07	3896592.8
2140.32	3884390.0
2140.57	3889841.8
2140.82	3890437.5
2141.07	3881414.0
2141.32	3891798.8
2141.57	3890411.2
2141.82	3883683.2
2142.07	3888541.5
2142.32	3883413.5
2142.57	3878696.0
2142.82	3730765.0
2143.07	3874563.5
2143.32	3865813.0
2143.57	3867368.2
2143.82	3853206.5
2144.07	3804835.5
2144.32	3851615.2
2144.57	3865659.0
2144.82	3865901.2
2145.07	3832341.8
2145.32	3792615.0
2145.57	3839179.2
2145.82	3752718.0
2146.07	3832987.2
2146.32	3855676.0
2146.57	3846872.8
2146.82	3852735.2
2147.07	3842509.2
2147.32	3841065.0
2147.57	3844334.0
2147.82	3850060.2
2148.07	3827331.0
2148.32	3830837.8
2148.57	3832409.0
2148.82	3830072.2
2149.07	3787287.8
2149.32	3835593.0
2149.57	3831486.8
2149.82	3809328.8
2150.07	3832593.5
2150.32	3830079.2
2150.57	3818830.8
2150.82	3822234.5
2151.07	3820409.2
2151.32	3818763.8
2151.57	3797674.2
2151.82	3816285.2
2152.07	3802855.8
2152.32	3721288.0
2152.57	3800219.8
2152.82	3791947.2
2153.07	3790091.8
2153.32	3757863.8
2153.57	3761351.0
2153.82	3779581.8
2154.07	3783089.2
2154.32	3782836.5
2154.57	3762260.5
2154.82	3788472.0
2155.07	3780275.8
2155.32	3773554.0
2155.57	3788746.8
2155.82	3780346.2
2156.07	3779640.0
2156.32	3762080.5
2156.57	3763981.5
2156.82	3763897.8
2157.07	3756724.5
2157.32	3762312.0
2157.57	3762414.2
2157.82	3757268.0
2158.07	3758255.5
2158.32	3749868.0
2158.57	3702946.8
2158.82	3738534.5
2159.07	3737611.0
2159.32	3709829.8
2159.57	3724113.5
2159.82	3721627.0
2160.07	3719252.8
2160.32	3719036.0
2160.57	3711836.0
2160.82	3702347.2
2161.07	3678819.8
2161.32	3615705.8
2161.57	3661288.8
2161.82	3657162.8
2162.07	3667586.0
2162.32	3655180.0
2162.57	3634505.8
2162.82	3629131.0
2163.07	3618856.2
2163.32	3600212.2
2163.57	3579210.8
2163.82	3555745.0
2164.07	3521623.8
2164.32	3451926.2
2164.57	3440424.2
2164.82	3373591.2
2165.07	3281451.5
2165.32	3095210.2
2165.57	2930250.5
2165.82	3192541.5
2166.07	3329145.2
2166.32	3403712.8
2166.57	3447236.5
2166.82	3491963.8
2167.07	3508289.8
2167.32	3469587.2
2167.57	3505014.8
2167.82	3568987.5
2168.07	3593939.5
2168.32	3582893.8
2168.57	3603804.2
2168.82	3579692.8
2169.07	3562584.2
2169.32	3604655.0
2169.57	3632870.2
2169.82	3590713.2
2170.07	3627834.2
2170.32	3641553.8
2170.57	3647635.8
2170.82	3648525.8
2171.07	3653123.0
2171.32	3577469.2
2171.57	3638728.8
2171.82	3649239.5
2172.07	3665548.8
2172.32	3655695.8
2172.57	3655886.5
2172.82	3646906.2
2173.07	3662057.2
2173.32	3661033.0
2173.57	3610666.2
2173.82	3638215.8
2174.07	3617241.2
2174.32	3632018.8
2174.57	3622004.8
2174.82	3631280.5
2175.07	3638560.5
2175.32	3630206.0
2175.57	3616792.8
2175.82	3626339.8
2176.07	3486222.8
2176.32	3623493.5
2176.57	3625141.5
2176.82	3639041.5
2177.07	3651327.0
2177.32	3647647.8
2177.57	3618315.5
2177.82	3435470.2
2178.07	3302305.5
2178.32	3583122.8
2178.57	3637692.8
2178.82	3576045.8
2179.07	3636534.5
2179.32	3630309.0
2179.57	3637291.0
2179.82	3643401.0
2180.07	3641540.5
2180.32	3636940.0
2180.57	3632720.8
2180.82	3634533.2
2181.07	3634235.0
2181.32	3621002.5
2181.57	3620168.8
2181.82	3527971.5
2182.07	3337443.0
2182.32	3579220.5
2182.57	3608929.0
2182.82	3625881.8
2183.07	3621125.0
2183.32	3599395.2
2183.57	3618234.2
2183.82	3596088.2
2184.07	3608121.8
2184.32	3619200.0
2184.57	3606503.2
2184.82	3611357.5
2185.07	3603008.8
2185.32	3603747.5
2185.57	3608465.2
2185.82	3584455.8
2186.07	3599254.0
2186.32	3600804.5
2186.57	3590386.2
2186.82	3600456.0
2187.07	3598169.0
2187.32	3451182.0
2187.57	3562970.5
2187.82	3280288.5
2188.07	3404009.5
2188.32	3583654.0
2188.57	3592001.2
2188.82	3586656.8
2189.07	3584890.8
2189.32	3578998.8
2189.57	3455977.8
2189.82	3546959.2
2190.07	3570013.8
2190.32	3555642.8
2190.57	3577795.5
2190.82	3559759.0
2191.07	3554235.2
2191.32	3569065.5
2191.57	3567215.8
2191.82	3574866.2
2192.07	3574629.8
2192.32	3572559.8
2192.57	3551487.2
2192.82	3568213.5
2193.07	3561816.0
2193.32	3541744.8
2193.57	3559742.8
2193.82	3546706.0
2194.07	3550695.2
2194.32	3449533.0
2194.57	3551791.8
2194.82	3546780.0
2195.07	3547458.8
2195.32	3548796.2
2195.57	3536338.0
2195.82	3551013.5
2196.07	3548141.0
2196.32	3534760.8
2196.57	3526055.8
2196.82	3538321.5
2197.07	3539208.2
2197.32	3530722.2
2197.57	3530484.8
2197.82	3537655.2
2198.07	3526458.2
2198.32	3526947.0
2198.57	3530558.5
2198.82	3527650.2
2199.07	3533320.8
2199.32	3490920.5
2199.57	3482948.5
2199.82	3510586.5
2200.07	3521873.8
2200.32	3518712.2
2200.57	3503123.2
2200.82	3514772.2
2201.07	3499526.0
2201.32	3498883.5
2201.57	3502279.8
2201.82	3507498.5
2202.07	3497875.8
2202.32	3502786.5
2202.57	3499193.0
2202.82	3497295.5
2203.07	3503669.8
2203.32	3418406.2
2203.57	3502215.0
2203.82	3503132.8
2204.07	3384095.0
2204.32	3485499.2
2204.57	3490323.5
2204.82	3483226.8
2205.07	3481606.0
2205.32	3468832.0
2205.57	3104752.5
2205.82	3433496.2
2206.07	3405607.2
2206.32	3010421.8
2206.57	3451431.8
2206.82	3479160.2
2207.07	3478487.0
2207.32	3375583.2
2207.57	3476956.5
2207.82	3477690.2
2208.07	3456498.5
2208.32	3165884.5
2208.57	3456966.5
2208.82	3466047.2
2209.07	3464301.8
2209.32	3471559.8
2209.57	3457422.0
2209.82	3454099.0
2210.07	3448572.5
2210.32	3450306.8
2210.57	3417854.5
2210.82	3451723.5
2211.07	3425413.2
2211.32	3428908.8
2211.57	3451504.2
2211.82	3417062.8
2212.07	3455910.5
2212.32	3456264.2
2212.57	3447181.2
2212.82	3449325.0
2213.07	3453612.0
2213.32	3443151.0
2213.57	3445384.2
2213.82	3447452.0
2214.07	3440355.0
2214.32	3429426.5
2214.57	3434241.2
2214.82	3435570.5
2215.07	3426472.5
2215.32	3437844.2
2215.57	3358563.8
2215.82	3430164.5
2216.07	3273248.2
2216.32	3425334.2
2216.57	3324035.8
2216.82	3380152.0
2217.07	3418628.8
2217.32	3421564.0
2217.57	3421457.8
2217.82	3389555.8
2218.07	3421036.8
2218.32	3418308.5
2218.57	3421510.2
2218.82	3416680.8
2219.07	3416241.2
2219.32	3411966.0
2219.57	3406952.2
2219.82	3395144.8
2220.07	3407719.8
2220.32	3407163.0
2220.57	3406003.5
2220.82	3396824.2
2221.07	3387365.0
2221.32	3403588.2
2221.57	3399051.0
2221.82	3394944.8
2222.07	3400031.0
2222.32	3400365.0
2222.57	3389756.2
2222.82	3384866.8
2223.07	3393490.5
2223.32	3372716.8
2223.57	3389882.5
2223.82	3388589.2
2224.07	3376324.8
2224.32	3363196.2
2224.57	3380464.0
2224.82	3384688.5
2225.07	3383348.8
2225.32	3368193.5
2225.57	3356931.5
2225.82	3245087.2
2226.07	3257885.8
2226.32	3374204.8
2226.57	3374606.0
2226.82	3365324.0
2227.07	3371759.5
2227.32	3343892.2
2227.57	3365754.8
2227.82	3264154.2
2228.07	3357462.2
2228.32	3365118.0
2228.57	3361619.8
2228.82	3358668.8
2229.07	3360076.2
2229.32	3354542.5
2229.57	3355132.0
2229.82	3287748.8
2230.07	3346408.0
2230.32	3345381.8
2230.57	3350593.5
2230.82	3323648.5
2231.07	3341821.8
2231.32	3347375.2
2231.57	3343683.2
2231.82	3344038.0
2232.07	3318061.8
2232.32	3334180.0
2232.57	3342314.8
2232.82	3333600.8
2233.07	3335299.5
2233.32	3337546.0
2233.57	3309657.0
2233.82	3334051.5
2234.07	3326280.5
2234.32	3322138.5
2234.57	3315036.0
2234.82	3325551.8
2235.07	3327209.5
2235.32	3322289.2
2235.57	3321514.2
2235.82	3321227.2
2236.07	3321307.2
2236.32	3321794.0
2236.57	3315657.2
2236.82	3312709.8
2237.07	3312753.0
2237.32	3315745.2
2237.57	3271983.0
2237.82	3306020.0
2238.07	3116573.5
2238.32	3290116.0
2238.57	3248455.0
2238.82	3303174.0
2239.07	3301923.0
2239.32	3220165.2
2239.57	3300504.2
2239.82	3298431.5
2240.07	3300355.8
2240.32	3298739.8
2240.57	3294540.8
2240.82	3286842.8
2241.07	3294760.0
2241.32	3280676.0
2241.57	3281132.8
2241.82	3288356.5
2242.07	3166219.8
2242.32	3273416.8
2242.57	3272767.2
2242.82	3275918.2
2243.07	3282484.5
2243.32	3280673.0
2243.57	3268863.5
2243.82	3255785.5
2244.07	3273229.0
2244.32	3272586.8
2244.57	3277979.8
2244.82	3270980.8
2245.07	3270219.2
2245.32	3261624.0
2245.57	3263540.2
2245.82	3269947.8
2246.07	3261005.5
2246.32	3266746.5
2246.57	3263237.0
2246.82	3261028.5
2247.07	3253761.0
2247.32	3021998.0
2247.57	3253104.0
2247.82	3232849.5
2248.07	3251004.0
2248.32	3244141.0
2248.57	3255163.5
2248.82	3251626.0
2249.07	3250798.0
2249.32	3217422.5
2249.57	3245228.5
2249.82	3247612.2
2250.07	3247195.5
2250.32	3243290.8
2250.57	3240596.8
2250.82	3146252.0
2251.07	3232541.8
2251.32	3238203.0
2251.57	3233475.8
2251.82	3146493.8
2252.07	3229305.8
2252.32	3230659.2
2252.57	3181656.8
2252.82	3232797.8
2253.07	3215813.8
2253.32	3220514.8
2253.57	3179245.2
2253.82	2856442.5
2254.07	3193623.2
2254.32	3213527.8
2254.57	3203378.8
2254.82	3214043.8
2255.07	3208275.8
2255.32	3088858.2
2255.57	3215912.2
2255.82	3209510.0
2256.07	3213095.0
2256.32	3115317.2
2256.57	3195037.8
2256.82	3200133.8
2257.07	3174637.2
2257.32	3208565.8
2257.57	3161751.2
2257.82	3201038.0
2258.07	3204267.5
2258.32	3203501.0
2258.57	3201132.2
2258.82	3197987.0
2259.07	3198628.2
2259.32	3192232.2
2259.57	3185485.8
2259.82	3187709.5
2260.07	3191854.5
2260.32	3190669.0
2260.57	3191415.0
2260.82	3094925.5
2261.07	3184257.8
2261.32	3168309.5
2261.57	3175643.8
2261.82	3172064.0
2262.07	2965783.2
2262.32	3163763.2
2262.57	3055633.5
2262.82	3169307.5
2263.07	3170582.8
2263.32	3175568.5
2263.57	3173713.2
2263.82	3169502.8
2264.07	3171783.5
2264.32	3097993.8
2264.57	3165382.5
2264.82	3167321.8
2265.07	3036139.8
2265.32	3143469.2
2265.57	3141806.8
2265.82	3162095.2
2266.07	3153488.5
2266.32	3156796.2
2266.57	3116999.8
2266.82	3157317.8
2267.07	3157260.8
2267.32	3152050.8
2267.57	3141818.5
2267.82	3151673.0
2268.07	3150840.8
2268.32	3148054.2
2268.57	3150247.0
2268.82	3147117.8
2269.07	3113359.0
2269.32	3140964.5
2269.57	3136935.8
2269.82	3140047.5
2270.07	3134177.5
2270.32	3135769.5
2270.57	3131341.8
2270.82	2942549.5
2271.07	3109978.5
2271.32	3121850.2
2271.57	3113721.0
2271.82	3124452.0
2272.07	3130314.5
2272.32	3127460.2
2272.57	3125861.0
2272.82	3119709.5
2273.07	3120782.2
2273.32	3122350.5
2273.57	3117084.0
2273.82	3115305.0
2274.07	2983041.5
2274.32	3109132.2
2274.57	3103389.5
2274.82	3102705.2
2275.07	3087202.8
2275.32	3108820.0
2275.57	3090615.8
2275.82	3103714.5
2276.07	3079945.5
2276.32	3103394.0
2276.57	3106580.5
2276.82	3105242.5
2277.07	3102833.5
2277.32	3104006.2
2277.57	3089129.2
2277.82	3097662.5
2278.07	3084039.5
2278.32	3084270.2
2278.57	3086816.5
2278.82	3089145.8
2279.07	3087153.8
2279.32	3055741.0
2279.57	3015968.8
2279.82	3079029.8
2280.07	3081519.5
2280.32	3052592.0
2280.57	2991288.8
2280.82	2496832.5
2281.07	3001275.2
2281.32	3025663.8
2281.57	3072711.0
2281.82	3073936.5
2282.07	2976876.0
2282.32	3073418.5
2282.57	3068628.8
2282.82	3068888.0
2283.07	3066521.2
2283.32	3013809.5
2283.57	3073708.5
2283.82	3072834.8
2284.07	3045107.2
2284.32	3062725.5
2284.57	3018592.0
2284.82	3065288.2
2285.07	3065934.2
2285.32	3064241.2
2285.57	3054144.8
2285.82	2994612.8
2286.07	3051761.0
2286.32	3021791.0
2286.57	3056436.2
2286.82	3048170.0
2287.07	3051118.5
2287.32	3030540.2
2287.57	3046109.5
2287.82	3049758.0
2288.07	3046584.8
2288.32	3038775.5
2288.57	3049051.2
2288.82	3000162.8
2289.07	3034738.8
2289.32	3043590.0
2289.57	3043456.5
2289.82	3042129.0
2290.07	3043027.5
2290.32	3036319.0
2290.57	2962242.8
2290.82	3026513.8
2291.07	3021891.2
2291.32	3028339.0
2291.57	3014230.5
2291.82	3031256.2
2292.07	3028814.5
2292.32	3028736.0
2292.57	3021732.0
2292.82	2906925.5
2293.07	2873961.5
2293.32	2958378.8
2293.57	2937133.8
2293.82	2963698.0
2294.07	2951128.8
2294.32	2962525.0
2294.57	3005467.0
2294.82	2969794.8
2295.07	2961615.5
2295.32	2970556.8
2295.57	2943217.0
2295.82	2995198.0
2296.07	2951736.0
2296.32	2975257.8
2296.57	2772247.2
2296.82	3001971.5
2297.07	2989261.8
2297.32	2958832.2
2297.57	3003378.0
2297.82	2947390.5
2298.07	2995724.2
2298.32	2984646.0
2298.57	2928732.2
2298.82	2989406.5
2299.07	2949397.0
2299.32	2985226.2
2299.57	2995499.0
2299.82	2909002.8
2300.07	2991200.0
2300.32	2995962.8
2300.57	2952481.2
2300.82	2976345.2
2301.07	2988102.8
2301.32	2987709.0
2301.57	2935355.5
2301.82	2987282.2
2302.07	2983610.0
2302.32	2918090.5
2302.57	2980976.2
2302.82	2980992.2
2303.07	2969159.8
2303.32	2927061.5
2303.57	2970047.0
2303.82	2966941.8
2304.07	2932392.5
2304.32	2963141.0
2304.57	2945328.8
2304.82	2967336.8
2305.07	2928508.0
2305.32	2958320.8
2305.57	2966381.8
2305.82	2968295.8
2306.07	2928801.2
2306.32	2951840.5
2306.57	2956638.2
2306.82	2956242.0
2307.07	2955872.2
2307.32	2917212.5
2307.57	2954382.5
2307.82	2953599.2
2308.07	2955515.8
2308.32	2916758.0
2308.57	2944759.2
2308.82	2952835.8
2309.07	2945651.0
2309.32	2919102.8
2309.57	2937167.2
2309.82	2938169.8
2310.07	2946917.0
2310.32	2934730.8
2310.57	2907291.8
2310.82	2934156.2
2311.07	2934862.8
2311.32	2939368.0
2311.57	2934803.2
2311.82	2904753.0
2312.07	2933365.5
2312.32	2928768.2
2312.57	2932337.5
2312.82	2928674.2
2313.07	2886231.0
2313.32	2928818.8
2313.57	2918413.8
2313.82	2927783.8
2314.07	2927415.0
2314.32	2844790.8
2314.57	2815449.0
2314.82	2917431.5
2315.07	2903346.0
2315.32	2913995.0
2315.57	2908109.2
2315.82	2892674.2
2316.07	2906221.2
2316.32	2841269.2
2316.57	2910761.5
2316.82	2912973.0
2317.07	2883927.8
2317.32	2876036.0
2317.57	2909200.0
2317.82	2903822.8
2318.07	2811470.2
2318.32	2894184.8
2318.57	2875376.8
2318.82	2903416.0
2319.07	2906727.2
2319.32	2894782.2
2319.57	2897142.8
2319.82	2891136.5
2320.07	2875596.2
2320.32	2897772.8
2320.57	2897957.2
2320.82	2892362.5
2321.07	2893154.2
2321.32	2881160.0
2321.57	2876034.0
2321.82	2877484.0
2322.07	2654231.8
2322.32	2739397.0
2322.57	2795176.2
2322.82	2796372.2
2323.07	2774777.2
2323.32	2791253.2
2323.57	2844946.8
2323.82	2825602.2
2324.07	2784257.2
2324.32	2871027.2
2324.57	2768329.0
2324.82	2824233.2
2325.07	2773392.8
2325.32	2869879.0
2325.57	2790300.5
2325.82	2869290.0
2326.07	2803527.0
2326.32	2830941.2
2326.57	2845608.2
2326.82	2811871.8
2327.07	2865203.2
2327.32	2822946.8
2327.57	2823684.2
2327.82	2837902.2
2328.07	2773979.8
2328.32	2859967.8
2328.57	2856101.5
2328.82	2780031.8
2329.07	2857429.5
2329.32	2851966.5
2329.57	2761558.0
2329.82	2853783.0
2330.07	2852527.0
2330.32	2818577.8
2330.57	2805526.0
2330.82	2785993.2
2331.07	2840225.2
2331.32	2754979.2
2331.57	2844886.2
2331.82	2846669.2
2332.07	2815309.5
2332.32	2799667.8
2332.57	2838345.8
2332.82	2813928.0
2333.07	2748818.5
2333.32	2821474.5
2333.57	2837714.2
2333.82	2832688.8
2334.07	2769426.0
2334.32	2832629.0
2334.57	2828211.5
2334.82	2601092.2
2335.07	2754324.0
2335.32	2826731.5
2335.57	2826872.5
2335.82	2827446.5
2336.07	2810039.5
2336.32	2769452.5
2336.57	2811504.0
2336.82	2807696.0
2337.07	2810840.5
2337.32	2754151.0
2337.57	2811038.2
2337.82	2536199.8
2338.07	2725092.2
2338.32	2767096.5
2338.57	2774267.8
2338.82	2812356.8
2339.07	2812532.0
2339.32	2809193.0
2339.57	2757302.2
2339.82	2793232.8
2340.07	2784403.5
2340.32	2806578.8
2340.57	2796761.8
2340.82	2748940.2
2341.07	2789465.5
2341.32	2801578.5
2341.57	2800140.2
2341.82	2800381.5
2342.07	2752319.2
2342.32	2784412.8
2342.57	2789732.0
2342.82	2795035.0
2343.07	2794870.0
2343.32	2740953.0
2343.57	2790125.2
2343.82	2779432.2
2344.07	2780431.5
2344.32	2782312.8
2344.57	2786129.2
2344.82	2738903.2
2345.07	2769662.2
2345.32	2770702.0
2345.57	2780491.5
2345.82	2751390.8
2346.07	2730524.8
2346.32	2777030.0
2346.57	2774168.2
2346.82	2776374.2
2347.07	2774281.8
2347.32	2739839.0
2347.57	2716365.0
2347.82	2760972.5
2348.07	2723475.0
2348.32	2762567.5
2348.57	2752265.0
2348.82	2762798.5
2349.07	2728802.2
2349.32	2768097.5
2349.57	2760343.2
2349.82	2739135.2
2350.07	2737694.8
2350.32	2753411.0
2350.57	2726867.8
2350.82	2762137.5
2351.07	2726779.0
2351.32	2749429.8
2351.57	2755861.8
2351.82	2553514.2
2352.07	2570547.5
2352.32	2632988.8
2352.57	2662579.8
2352.82	2687389.8
2353.07	2667456.8
2353.32	2676558.8
2353.57	2695317.8
2353.82	2660323.0
2354.07	2710769.2
2354.32	2683204.5
2354.57	2708875.8
2354.82	2682656.8
2355.07	2712966.2
2355.32	2654449.0
2355.57	2704097.8
2355.82	2682829.2
2356.07	2736274.8
2356.32	2659001.8
2356.57	2587427.5
2356.82	2695499.2
2357.07	2637047.2
2357.32	2682730.8
2357.57	2677439.5
2357.82	2664221.8
2358.07	2731505.0
2358.32	2697295.0
2358.57	2673091.5
2358.82	2701914.0
2359.07	2702714.2
2359.32	2665265.0
2359.57	2716010.0
2359.82	2698329.5
2360.07	2648230.8
2360.32	2698258.2
2360.57	2679882.0
2360.82	2650051.5
2361.07	2683383.0
2361.32	2714096.2
2361.57	2694427.2
2361.82	2655034.8
2362.07	2709052.8
2362.32	2690272.8
2362.57	2681335.0
2362.82	2645359.0
2363.07	2702899.5
2363.32	2708061.8
2363.57	2687893.5
2363.82	2645481.2
2364.07	2698142.0
2364.32	2689418.0
2364.57	2693221.0
2364.82	2622951.0
2365.07	2700987.5
2365.32	2699241.5
2365.57	2691552.2
2365.82	2627284.0
2366.07	2676749.5
2366.32	2686318.5
2366.57	2693012.0
2366.82	2676334.8
2367.07	2636951.0
2367.32	2665954.8
2367.57	2687679.2
2367.82	2688949.5
2368.07	2609103.8
2368.32	2639468.8
2368.57	2680071.5
2368.82	2684159.0
2369.07	2682566.2
2369.32	2605354.2
2369.57	2604558.8
2369.82	2663918.8
2370.07	2666318.8
2370.32	2677072.0
2370.57	2613257.5
2370.82	2675313.5
2371.07	2672655.5
2371.32	2652011.0
2371.57	2670109.2
2371.82	2612526.2
2372.07	2645076.0
2372.32	2624318.0
2372.57	2648488.0
2372.82	2649963.5
2373.07	2598837.2
2373.32	2594518.5
2373.57	2366066.2
2373.82	2447895.8
2374.07	2612135.5
2374.32	2643042.8
2374.57	2604912.5
2374.82	2639424.0
2375.07	2630482.2
2375.32	2652224.8
2375.57	2646085.0
2375.82	2609733.8
2376.07	2611381.2
2376.32	2639741.8
2376.57	2640279.8
2376.82	2648098.0
2377.07	2647053.5
2377.32	2607277.0
2377.57	2625084.0
2377.82	2637448.8
2378.07	2644585.8
2378.32	2634105.2
2378.57	2636183.0
2378.82	2600760.2
2379.07	2637968.2
2379.32	2631088.5
2379.57	2626965.8
2379.82	2635423.0
2380.07	2637474.2
2380.32	2577969.8
2380.57	2629979.8
2380.82	2628375.5
2381.07	2626052.5
2381.32	2621208.5
2381.57	2630344.0
2381.82	2627237.0
2382.07	2596072.2
2382.32	2435422.0
2382.57	2488517.5
2382.82	2514726.2
2383.07	2521505.2
2383.32	2530272.5
2383.57	2442862.2
2383.82	2543330.0
2384.07	2526584.5
2384.32	2427134.8
2384.57	2530305.0
2384.82	2549690.2
2385.07	2537941.5
2385.32	2545469.5
2385.57	2540465.8
2385.82	2345003.5
2386.07	2466741.5
2386.32	2581188.8
2386.57	2575167.2
2386.82	2549706.0
2387.07	2552974.0
2387.32	2548875.2
2387.57	2595762.8
2387.82	2583069.0
2388.07	2546822.8
2388.32	2592196.5
2388.57	2548631.5
2388.82	2518879.2
2389.07	2591159.0
2389.32	2571738.0
2389.57	2548234.2
2389.82	2577053.5
2390.07	2572250.2
2390.32	2540923.0
2390.57	2561744.8
2390.82	2592853.8
2391.07	2574084.8
2391.32	2542779.2
2391.57	2566859.8
2391.82	2567090.5
2392.07	2541615.8
2392.32	2511820.2
2392.57	2549333.8
2392.82	2561038.2
2393.07	2534624.2
2393.32	2585450.2
2393.57	2584839.0
2393.82	2549516.8
2394.07	2530894.8
2394.32	2545891.8
2394.57	2567507.0
2394.82	2550749.8
2395.07	2529251.0
2395.32	2512680.2
2395.57	2575091.0
2395.82	2567045.5
2396.07	2503910.0
2396.32	2559954.8
2396.57	2567684.5
2396.82	2561185.8
2397.07	2549588.2
2397.32	2480405.5
2397.57	2556886.2
2397.82	2562540.2
2398.07	2543839.0
2398.32	2546234.8
2398.57	2515343.5
2398.82	2554106.2
2399.07	2554197.0
2399.32	2502314.5
2399.57	2497248.2
2399.82	2453157.8
